File: data/XRD/2021_03_30/211_6554_10x3F_v16T80_T500v2.txt
Index	X	Acquisition
0	-2.81233	3
3	-2.72587	36
6	-2.6394	35
9	-2.55294	34
12	-2.46648	36
15	-2.38002	31
18	-2.29356	33
21	-2.2071	23
24	-2.12064	32
27	-2.03418	26
30	-1.94772	29
33	-1.86126	27
36	-1.7748	29
39	-1.68834	36
42	-1.60188	30
45	-1.51542	35
48	-1.42896	30
51	-1.3425	44
54	-1.25604	40
57	-1.16958	40
60	-1.08311	28
63	-0.996654	39
66	-0.910193	34
69	-0.823733	26
72	-0.737272	36
75	-0.650812	22
78	-0.564351	35
81	-0.47789	40
84	-0.39143	35
87	-0.304969	43
90	-0.218509	32
93	-0.132048	27
96	-0.0455875	32
99	0.0408731	31
102	0.127334	37
105	0.213794	33
108	0.300255	36
111	0.386717	27
114	0.473178	32
117	0.55964	34
120	0.646103	25
123	0.732566	29
126	0.819029	25
129	0.905494	37
132	0.991959	34
135	1.07843	39
138	1.16489	44
141	1.25136	34
144	1.33783	36
147	1.4243	31
150	1.51077	48
153	1.59725	41
156	1.68372	33
159	1.7702	32
162	1.85667	42
165	1.94315	52
168	2.02963	49
171	2.11612	34
174	2.2026	37
177	2.28909	39
180	2.37558	49
183	2.46207	65
186	2.54856	56
189	2.63506	64
192	2.72156	58
195	2.80806	50
198	2.89456	46
201	2.98107	44
204	3.06757	41
207	3.15409	50
210	3.2406	53
213	3.32712	62
216	3.41364	50
219	3.50016	48
222	3.58669	35
225	3.67322	51
228	3.75975	40
231	3.84628	60
234	3.93282	52
237	4.01937	51
240	4.10591	41
243	4.19246	37
246	4.27902	47
249	4.36558	48
252	4.45214	49
255	4.5387	44
258	4.62528	48
261	4.71185	50
264	4.79843	63
267	4.88501	46
270	4.9716	44
273	5.05819	42
276	5.14479	42
279	5.23139	46
282	5.31799	45
285	5.4046	50
288	5.49122	33
291	5.57784	66
294	5.66447	59
297	5.7511	38
300	5.83773	51
303	5.92437	62
306	6.01102	41
309	6.09767	53
312	6.18433	53
315	6.27099	46
318	6.35766	70
321	6.44434	56
324	6.53102	66
327	6.6177	67
330	6.70439	65
333	6.79109	80
336	6.8778	74
339	6.96451	75
342	7.05122	88
345	7.13795	85
348	7.22468	102
351	7.31141	113
354	7.39815	127
357	7.4849	205
360	7.57166	284
363	7.65842	462
366	7.74519	1194
369	7.83197	2412
372	7.91875	3635
375	8.00555	4603
378	8.09234	5388
381	8.17915	5599
384	8.26596	5919
387	8.35278	5877
390	8.43961	5937
393	8.52645	5897
396	8.61329	5981
399	8.70014	5832
402	8.787	5866
405	8.87387	5768
408	8.96074	5959
411	9.04762	5578
414	9.13452	5534
417	9.22141	5658
420	9.30832	5584
423	9.39524	5593
426	9.48216	5567
429	9.5691	5456
432	9.65604	5643
435	9.74299	5540
438	9.82995	5515
441	9.91692	5399
444	10.0039	5491
447	10.0909	5576
450	10.1779	5566
453	10.2649	5686
456	10.3519	5633
459	10.4389	5685
462	10.5259	5535
465	10.613	5456
468	10.7	5571
471	10.7871	5479
474	10.8742	5629
477	10.9613	5426
480	11.0483	5559
483	11.1354	5666
486	11.2226	5537
489	11.3097	5432
492	11.3968	5443
495	11.4839	5480
498	11.5711	5680
501	11.6583	5668
504	11.7454	5632
507	11.8326	5653
510	11.9198	5632
513	12.007	5726
516	12.0942	5738
519	12.1815	5785
522	12.2687	5737
525	12.3559	5670
528	12.4432	5760
531	12.5305	5766
534	12.6178	5699
537	12.705	5766
540	12.7923	5686
543	12.8797	5787
546	12.967	5675
549	13.0543	5629
552	13.1417	5818
555	13.229	5738
558	13.3164	5725
561	13.4038	5731
564	13.4912	5804
567	13.5786	5732
570	13.666	5603
573	13.7535	5844
576	13.8409	5653
579	13.9284	5825
582	14.0159	5829
585	14.1033	5662
588	14.1908	5769
591	14.2784	5748
594	14.3659	5785
597	14.4534	5802
600	14.541	5893
603	14.6285	5764
606	14.7161	5837
609	14.8037	5941
612	14.8913	5777
615	14.9789	5807
618	15.0665	5888
621	15.1542	5778
624	15.2418	5839
627	15.3295	5824
630	15.4172	5794
633	15.5049	5894
636	15.5926	5809
639	15.6803	5678
642	15.7681	5885
645	15.8558	5914
648	15.9436	5924
651	16.0314	5708
654	16.1192	5738
657	16.207	5917
660	16.2948	5912
663	16.3827	5894
666	16.4705	5750
669	16.5584	5789
672	16.6463	5896
675	16.7342	6016
678	16.8221	5730
681	16.91	5784
684	16.998	5939
687	17.0859	5917
690	17.1739	5858
693	17.2619	5724
696	17.3499	5806
699	17.4379	5953
702	17.526	5964
705	17.614	6034
708	17.7021	5773
711	17.7902	5797
714	17.8783	5958
717	17.9664	5818
720	18.0545	6050
723	18.1427	5949
726	18.2308	5912
729	18.319	5992
732	18.4072	6089
735	18.4954	5992
738	18.5837	5925
741	18.6719	5870
744	18.7602	5860
747	18.8485	5826
750	18.9368	5901
753	19.0251	6029
756	19.1134	5947
759	19.2018	5979
762	19.2901	5951
765	19.3785	5854
768	19.4669	5901
771	19.5554	6061
774	19.6438	5935
777	19.7322	5948
780	19.8207	5926
783	19.9092	5927
786	19.9977	5964
789	20.0862	5958
792	20.1748	6098
795	20.2634	5830
798	20.3519	5864
801	20.4405	5904
804	20.5292	5972
807	20.6178	5960
810	20.7064	5838
813	20.7951	5928
816	20.8838	5985
819	20.9725	5908
822	21.0612	6041
825	21.1499	5806
828	21.2387	5913
831	21.3275	5892
834	21.4162	6154
837	21.505	6078
840	21.5938	5943
843	21.6826	6048
846	21.7714	5974
849	21.8602	5998
852	21.9491	5878
855	22.0379	5850
858	22.1268	6049
861	22.2156	6016
864	22.3045	5950
867	22.3933	6011
870	22.4822	5952
873	22.5711	6035
876	22.66	6124
879	22.7488	6009
882	22.8377	5967
885	22.9266	5932
888	23.0155	6209
891	23.1044	6106
894	23.1933	5963
897	23.2821	6112
900	23.371	5948
903	23.4599	6018
906	23.5488	5984
909	23.6377	6032
912	23.7265	6239
915	23.8154	6015
918	23.9042	6081
921	23.9931	6079
924	24.0819	6045
927	24.1708	5966
930	24.2596	5943
933	24.3484	5854
936	24.4373	5903
939	24.5261	5908
942	24.6149	6017
945	24.7036	6053
948	24.7924	5970
951	24.8812	6043
954	24.9699	6055
957	25.0586	5924
960	25.1474	6213
963	25.2361	6203
966	25.3247	6110
969	25.4134	6071
972	25.5021	6100
975	25.5907	6131
978	25.6793	6139
981	25.7679	5930
984	25.8565	6006
987	25.9451	6114
990	26.0336	5975
993	26.1221	6375
996	26.2106	6213
999	26.2991	6128
1002	26.3875	5934
1005	26.476	6160
1008	26.5644	6089
1011	26.6527	6055
1014	26.7411	6073
1017	26.8294	6116
1020	26.9177	6084
1023	27.006	6071
1026	27.0942	6193
1029	27.1824	6135
1032	27.2706	6234
1035	27.3588	6133
1038	27.4469	6201
1041	27.535	6170
1044	27.623	6223
1047	27.7111	6323
1050	27.7991	6194
1053	27.887	6271
1056	27.9749	6335
1059	28.0628	6112
1062	28.1507	6348
1065	28.2385	6088
1068	28.3263	6050
1071	28.414	6331
1074	28.5017	6188
1077	28.5894	6112
1080	28.677	6240
1083	28.7646	6036
1086	28.8521	6100
1089	28.9396	6247
1092	29.0271	6328
1095	29.1145	6432
1098	29.2019	6423
1101	29.2892	6367
1104	29.3765	6229
1107	29.4638	6495
1110	29.551	6560
1113	29.6382	6361
1116	29.7253	6410
1119	29.8124	6565
1122	29.8995	6448
1125	29.9866	6522
1128	30.0736	6510
1131	30.1606	6702
1134	30.2476	6388
1137	30.3345	6433
1140	30.4215	6491
1143	30.5084	6320
1146	30.5953	6278
1149	30.6823	6395
1152	30.7692	6482
1155	30.856	6313
1158	30.9429	6347
1161	31.0298	6269
1164	31.1167	6363
1167	31.2036	6100
1170	31.2904	6166
1173	31.3773	6143
1176	31.4642	6135
1179	31.5511	6242
1182	31.638	6307
1185	31.7249	6198
1188	31.8118	6329
1191	31.8988	6077
1194	31.9857	6103
1197	32.0727	6159
1200	32.1597	6141
1203	32.2467	6099
1206	32.3337	6140
1209	32.4208	6271
1212	32.5079	6382
1215	32.595	6354
1218	32.6822	6254
1221	32.7694	6204
1224	32.8566	6210
1227	32.9439	6222
1230	33.0312	6250
1233	33.1185	6122
1236	33.2059	6249
1239	33.2933	6247
1242	33.3808	6149
1245	33.4684	6289
1248	33.5559	6120
1251	33.6436	6219
1254	33.7313	6197
1257	33.819	6126
1260	33.9068	6361
1263	33.9947	6051
1266	34.0826	6154
1269	34.1705	6124
1272	34.2585	6202
1275	34.3466	6189
1278	34.4346	6297
1281	34.5227	6134
1284	34.6109	6320
1287	34.699	6294
1290	34.7872	6363
1293	34.8754	6104
1296	34.9637	6405
1299	35.0519	6275
1302	35.1402	6446
1305	35.2284	6330
1308	35.3167	6414
1311	35.405	6275
1314	35.4932	6438
1317	35.5815	6165
1320	35.6697	6228
1323	35.758	6379
1326	35.8462	6325
1329	35.9344	6145
1332	36.0226	6229
1335	36.1108	6113
1338	36.1989	6234
1341	36.287	6246
1344	36.3752	6130
1347	36.4633	6085
1350	36.5514	6429
1353	36.6395	6171
1356	36.7275	6261
1359	36.8156	6237
1362	36.9037	6165
1365	36.9917	6093
1368	37.0798	6279
1371	37.1678	6305
1374	37.2559	6219
1377	37.344	6421
1380	37.432	6354
1383	37.5201	6352
1386	37.6082	6478
1389	37.6962	6325
1392	37.7843	6262
1395	37.8724	6312
1398	37.9605	6126
1401	38.0486	6270
1404	38.1368	6219
1407	38.2249	6153
1410	38.3131	6301
1413	38.4013	6204
1416	38.4895	6251
1419	38.5777	6261
1422	38.6659	6322
1425	38.7542	6332
1428	38.8425	6116
1431	38.9308	6288
1434	39.0192	6236
1437	39.1076	6325
1440	39.196	6261
1443	39.2844	6291
1446	39.3729	6294
1449	39.4614	6391
1452	39.55	6220
1455	39.6386	6249
1458	39.7272	6201
1461	39.8159	6275
1464	39.9046	6249
1467	39.9933	6220
1470	40.0821	6379
1473	40.1709	6330
1476	40.2598	6276
1479	40.3487	6381
1482	40.4376	6301
1485	40.5265	6264
1488	40.6154	6414
1491	40.7043	6386
1494	40.7933	6189
1497	40.8822	6366
1500	40.9712	6261
1503	41.0601	6331
1506	41.149	6485
1509	41.2379	6262
1512	41.3268	6256
1515	41.4157	6390
1518	41.5045	6238
1521	41.5934	6379
1524	41.6821	6253
1527	41.7709	6327
1530	41.8596	6071
1533	41.9482	6380
1536	42.0369	6265
1539	42.1254	6192
1542	42.2139	6217
1545	42.3024	6148
1548	42.3907	6324
1551	42.479	6078
1554	42.5673	6201
1557	42.6554	6276
1560	42.7435	6328
1563	42.8315	6278
1566	42.9194	6399
1569	43.0072	6369
1572	43.0949	6230
1575	43.1826	6463
1578	43.2701	6430
1581	43.3575	6629
1584	43.4448	6665
1587	43.532	6886
1590	43.6191	7044
1593	43.706	7228
1596	43.7929	7476
1599	43.8797	7718
1602	43.9664	7920
1605	44.0531	8110
1608	44.1397	8385
1611	44.2263	8092
1614	44.3128	8391
1617	44.3993	8392
1620	44.4859	8021
1623	44.5724	7841
1626	44.6589	7519
1629	44.7455	7275
1632	44.832	6805
1635	44.9187	6781
1638	45.0053	6644
1641	45.0921	6643
1644	45.1789	6419
1647	45.2658	6428
1650	45.3528	6317
1653	45.4399	6342
1656	45.5271	6324
1659	45.6145	6306
1662	45.702	6385
1665	45.7896	6256
1668	45.8774	6301
1671	45.9654	6429
1674	46.0535	6467
1677	46.1418	6345
1680	46.2304	6272
1683	46.3191	6485
1686	46.4081	6294
1689	46.4973	6367
1692	46.5867	6246
1695	46.6764	6493
1698	46.7663	6273
1701	46.8566	6456
1704	46.9471	6186
1707	47.0378	6284
1710	47.1288	6359
1713	47.2201	6377
1716	47.3114	6366
1719	47.4029	6519
1722	47.4945	6563
1725	47.5862	6435
1728	47.6779	6417
1731	47.7696	6264
1734	47.8612	6353
1737	47.9528	6362
1740	48.0443	6425
1743	48.1356	6572
1746	48.2267	6347
1749	48.3176	6443
1752	48.4083	6394
1755	48.4987	6424
1758	48.5888	6373
1761	48.6785	6560
1764	48.768	6463
1767	48.8572	6288
1770	48.9461	6268
1773	49.0348	6419
1776	49.1232	6574
1779	49.2115	6445
1782	49.2995	6553
1785	49.3874	6562
1788	49.4752	6387
1791	49.5629	6354
1794	49.6504	6402
1797	49.7379	6468
1800	49.8253	6528
1803	49.9127	6601
1806	50.0001	6610
1809	50.0874	6488
1812	50.1748	6562
1815	50.2622	6617
1818	50.3497	6862
1821	50.4372	6527
1824	50.5247	6551
1827	50.6122	6654
1830	50.6997	6549
1833	50.7873	6451
1836	50.8748	6455
1839	50.9624	6611
1842	51.05	6516
1845	51.1375	6477
1848	51.2251	6443
1851	51.3127	6325
1854	51.4002	6372
1857	51.4878	6479
1860	51.5754	6573
1863	51.6629	6304
1866	51.7504	6543
1869	51.8379	6367
1872	51.9254	6337
1875	52.0128	6397
1878	52.1003	6415
1881	52.1876	6538
1884	52.275	6263
1887	52.3623	6524
1890	52.4496	6455
1893	52.5369	6429
1896	52.6241	6278
1899	52.7112	6309
1902	52.7983	6470
1905	52.8853	6283
1908	52.9723	6611
1911	53.0593	6585
1914	53.1461	6528
1917	53.2329	6276
1920	53.3197	6479
1923	53.4064	6529
1926	53.493	6368
1929	53.5796	6489
1932	53.6662	6515
1935	53.7527	6396
1938	53.8392	6303
1941	53.9258	6378
1944	54.0123	6464
1947	54.0989	6294
1950	54.1855	6436
1953	54.2721	6456
1956	54.3587	6284
1959	54.4454	6350
1962	54.5322	6353
1965	54.619	6377
1968	54.7059	6342
1971	54.7929	6687
1974	54.88	6512
1977	54.9672	6416
1980	55.0545	6153
1983	55.1419	6556
1986	55.2294	6584
1989	55.3171	6415
1992	55.4049	6486
1995	55.4929	6423
1998	55.5811	6364
2001	55.6694	6203
2004	55.7579	6538
2007	55.8466	6435
2010	55.9355	6314
2013	56.0246	6183
2016	56.1139	6287
2019	56.2034	6451
2022	56.2932	6382
2025	56.3831	6275
2028	56.4732	6219
2031	56.5634	6296
2034	56.6537	6436
2037	56.7441	6473
2040	56.8345	6378
2043	56.9248	6449
2046	57.0151	6398
2049	57.1054	6308
2052	57.1955	6467
2055	57.2855	6443
2058	57.3753	6313
2061	57.4649	6339
2064	57.5542	6414
2067	57.6433	6429
2070	57.732	6405
2073	57.8205	6422
2076	57.9088	6425
2079	57.9968	6474
2082	58.0846	6460
2085	58.1723	6409
2088	58.2598	6285
2091	58.3471	6253
2094	58.4344	6513
2097	58.5216	6569
2100	58.6088	6506
2103	58.6959	6449
2106	58.783	6374
2109	58.8702	6308
2112	58.9574	6469
2115	59.0446	6414
2118	59.132	6547
2121	59.2195	6535
2124	59.307	6422
2127	59.3947	6339
2130	59.4824	6569
2133	59.5702	6515
2136	59.6581	6442
2139	59.746	6530
2142	59.8341	6673
2145	59.9222	6464
2148	60.0103	6494
2151	60.0986	6562
2154	60.1868	6421
2157	60.2752	6600
2160	60.3636	6519
2163	60.452	6533
2166	60.5405	6547
2169	60.629	6404
2172	60.7176	6533
2175	60.8061	6548
2178	60.8946	6415
2181	60.983	6459
2184	61.0714	6408
2187	61.1597	6463
2190	61.2479	6322
2193	61.336	6422
2196	61.4239	6539
2199	61.5117	6259
2202	61.5993	6419
2205	61.6867	6496
2208	61.774	6365
2211	61.8609	6309
2214	61.9477	6433
2217	62.0342	6391
2220	62.1206	6559
2223	62.2067	6442
2226	62.2927	6471
2229	62.3785	6425
2232	62.4642	6461
2235	62.5498	6252
2238	62.6353	6436
2241	62.7206	6278
2244	62.8059	6432
2247	62.8911	6405
2250	62.9763	6445
2253	63.0614	6531
2256	63.1465	6291
2259	63.2316	6624
2262	63.3167	6201
2265	63.4018	6388
2268	63.487	6457
2271	63.5722	6434
2274	63.6575	6497
2277	63.7429	6298
2280	63.8284	6361
2283	63.914	6331
2286	63.9997	6369
2289	64.0856	6296
2292	64.1716	6501
2295	64.2578	6569
2298	64.3442	6443
2301	64.4307	6696
2304	64.5176	6519
2307	64.6046	6422
2310	64.6919	6478
2313	64.7794	6639
2316	64.8671	6487
2319	64.955	6417
2322	65.0431	6213
2325	65.1313	6323
2328	65.2198	6369
2331	65.3085	6465
2334	65.3973	6271
2337	65.4862	6158
2340	65.5754	6242
2343	65.6646	6363
2346	65.754	6354
2349	65.8435	6479
2352	65.9332	6198
2355	66.0229	6310
2358	66.1128	6436
2361	66.2028	6213
2364	66.2928	6235
2367	66.3829	6319
2370	66.4731	6277
2373	66.5634	6282
2376	66.6537	6135
2379	66.7441	6350
2382	66.8345	6200
2385	66.9249	6275
2388	67.0154	6297
2391	67.1059	6372
2394	67.1964	6286
2397	67.2869	6412
2400	67.3774	6395
2403	67.4679	6446
2406	67.5584	6511
2409	67.6488	6386
2412	67.7392	6274
2415	67.8296	6256
2418	67.9199	6326
2421	68.0102	6281
2424	68.1003	6254
2427	68.1905	6347
2430	68.2805	6058
2433	68.3704	6185
2436	68.4603	6323
2439	68.55	6347
2442	68.6396	6197
2445	68.7292	6355
2448	68.8185	6287
2451	68.9078	6269
2454	68.9969	6407
2457	69.0858	6190
2460	69.1746	6234
2463	69.2632	6214
2466	69.3517	6172
2469	69.44	6064
2472	69.528	6161
2475	69.6159	6211
2478	69.7036	6067
2481	69.791	6263
2484	69.8783	6206
2487	69.9653	6232
2490	70.0523	6205
2493	70.1391	6183
2496	70.2258	6213
2499	70.3124	6168
2502	70.399	6323
2505	70.4857	6242
2508	70.5723	6116
2511	70.6591	6246
2514	70.7459	6342
2517	70.8329	6323
2520	70.9201	6165
2523	71.0074	6093
2526	71.095	6241
2529	71.1828	6186
2532	71.2709	6138
2535	71.3591	6042
2538	71.4476	6142
2541	71.5362	6197
2544	71.6249	6214
2547	71.7138	6166
2550	71.8028	6241
2553	71.8919	6233
2556	71.9811	6310
2559	72.0704	6213
2562	72.1597	6158
2565	72.249	6240
2568	72.3384	6438
2571	72.4277	6261
2574	72.517	6257
2577	72.6064	6403
2580	72.6957	6343
2583	72.7849	6339
2586	72.8742	6159
2589	72.9634	6299
2592	73.0526	6226
2595	73.1417	6187
2598	73.2308	6216
2601	73.3199	6176
2604	73.4089	6296
2607	73.4979	6439
2610	73.5868	6412
2613	73.6756	6258
2616	73.7644	6292
2619	73.8531	6261
2622	73.9417	6220
2625	74.0303	6259
2628	74.1187	6176
2631	74.2071	6070
2634	74.2954	6133
2637	74.3837	6234
2640	74.4718	6089
2643	74.5598	6012
2646	74.6477	6235
2649	74.7355	6086
2652	74.8232	6348
2655	74.9108	6248
2658	74.9982	6012
2661	75.0856	6192
2664	75.1729	6182
2667	75.2601	6116
2670	75.3473	6118
2673	75.4344	6048
2676	75.5215	6188
2679	75.6086	6227
2682	75.6957	5912
2685	75.7827	6110
2688	75.8698	6224
2691	75.957	5998
2694	76.0442	6009
2697	76.1314	6141
2700	76.2188	6105
2703	76.3062	6135
2706	76.3937	6302
2709	76.4814	6262
2712	76.5691	6172
2715	76.657	6012
2718	76.7451	6180
2721	76.8333	6043
2724	76.9217	6101
2727	77.0104	6222
2730	77.0992	6218
2733	77.1882	6221
2736	77.2775	6278
2739	77.367	6163
2742	77.4568	6174
2745	77.5468	6167
2748	77.6369	6032
2751	77.7272	6083
2754	77.8176	6157
2757	77.9081	6165
2760	77.9986	6081
2763	78.0891	6178
2766	78.1796	6242
2769	78.27	6168
2772	78.3603	5966
2775	78.4505	6115
2778	78.5405	5907
2781	78.6303	6335
2784	78.7198	6118
2787	78.8092	6280
2790	78.8983	6082
2793	78.9872	6124
2796	79.076	6218
2799	79.1645	6166
2802	79.2529	5779
2805	79.3411	5993
2808	79.4292	5743
2811	79.5171	5991
2814	79.6049	5937
2817	79.6925	6098
2820	79.78	5960
2823	79.8674	6010
2826	79.9547	5942
2829	80.0419	6058
2832	80.1291	6053
2835	80.2161	6071
2838	80.3031	6060
2841	80.39	6286
2844	80.4769	6383
2847	80.5637	6348
2850	80.6505	6373
2853	80.7372	6476
2856	80.824	6392
2859	80.9107	6530
2862	80.9974	6501
2865	81.0842	6518
2868	81.171	6532
2871	81.2577	6497
2874	81.3445	6661
2877	81.4314	6620
2880	81.5182	6717
2883	81.6051	6649
2886	81.6919	6443
2889	81.7788	6331
2892	81.8658	6323
2895	81.9527	6418
2898	82.0397	6348
2901	82.1267	6375
2904	82.2138	6438
2907	82.3009	6305
2910	82.388	6396
2913	82.4752	6267
2916	82.5624	6194
2919	82.6496	6225
2922	82.7369	6129
2925	82.8242	6083
2928	82.9116	6045
2931	82.999	5895
2934	83.0864	5911
2937	83.1739	6021
2940	83.2615	6006
2943	83.3491	5851
2946	83.4368	6001
2949	83.5245	6043
2952	83.6123	6067
2955	83.7001	5881
2958	83.788	6050
2961	83.8759	5793
2964	83.9639	6005
2967	84.052	5776
2970	84.1401	5962
2973	84.2283	6133
2976	84.3166	5851
2979	84.4049	6042
2982	84.4934	5994
2985	84.5818	6060
2988	84.6704	6027
2991	84.759	5938
2994	84.8477	5928
2997	84.9365	6176
3000	85.0253	6024
3003	85.1142	6110
3006	85.2031	6125
3009	85.292	5807
3012	85.3809	5896
3015	85.4699	6053
3018	85.5588	5978
3021	85.6478	6087
3024	85.7368	6154
3027	85.8257	6035
3030	85.9146	5887
3033	86.0035	6207
3036	86.0923	6041
3039	86.1811	5874
3042	86.2698	6039
3045	86.3584	5830
3048	86.447	6073
3051	86.5355	6010
3054	86.6239	5988
3057	86.7122	5929
3060	86.8004	6045
3063	86.8884	5883
3066	86.9764	5981
3069	87.0642	6013
3072	87.1519	5965
3075	87.2394	5753
3078	87.3268	5904
3081	87.4141	5901
3084	87.5014	5943
3087	87.5885	5911
3090	87.6756	5879
3093	87.7626	5830
3096	87.8496	5972
3099	87.9366	5921
3102	88.0236	5761
3105	88.1106	5689
3108	88.1977	6067
3111	88.2848	5870
3114	88.372	5789
3117	88.4592	5782
3120	88.5466	5881
3123	88.634	5707
3126	88.7216	5941
3129	88.8094	5958
3132	88.8973	5764
3135	88.9853	5740
3138	89.0736	5817
3141	89.1621	6014
3144	89.2508	5878
3147	89.3397	5805
3150	89.4289	5737
3153	89.5184	5743
3156	89.6081	5887
3159	89.6981	5738
3162	89.7883	5907
3165	89.8787	5796
3168	89.9691	5888
3171	90.0597	5947
3174	90.1502	5780
3177	90.2407	5703
3180	90.3312	5938
3183	90.4215	5805
3186	90.5116	5986
3189	90.6015	5707
3192	90.6912	5914
3195	90.7806	5716
3198	90.8696	5904
3201	90.9584	5906
3204	91.0469	5878
3207	91.1352	5775
3210	91.2235	5754
3213	91.3116	5900
3216	91.3998	5986
3219	91.4879	5847
3222	91.5761	5771
3225	91.6645	5870
3228	91.753	5796
3231	91.8417	5877
3234	91.9307	6192
3237	92.02	5955
3240	92.1097	5638
3243	92.1996	5868
3246	92.2897	6043
3249	92.3801	5875
3252	92.4707	5954
3255	92.5614	5873
3258	92.6523	5663
3261	92.7433	5838
3264	92.8344	5896
3267	92.9255	5908
3270	93.0166	5662
3273	93.1078	5871
3276	93.1989	5805
3279	93.2899	5738
3282	93.3809	5869
3285	93.4717	5994
3288	93.5623	5799
3291	93.6528	5641
3294	93.7431	6026
3297	93.8331	5806
3300	93.9229	5897
3303	94.0124	5721
3306	94.1015	5855
3309	94.1903	5798
3312	94.2787	5817
3315	94.3667	5693
3318	94.4542	5811
3321	94.5413	5883
3324	94.6279	5770
3327	94.7139	5661
3330	94.7994	5983
3333	94.8843	5857
3336	94.9685	5785
3339	95.0522	5775
3342	95.1351	5715
3345	95.2174	5901
3348	95.2989	5688
3351	95.3797	5778
3354	95.4596	5693
3357	95.5388	5873
3360	95.6171	5750
3363	95.6946	5779
3366	95.7713	5637
3369	95.8475	5721
3372	95.9232	5700
3375	95.9985	5673
3378	96.0735	5678
3381	96.1483	5658
3384	96.2231	5812
3387	96.298	5757
3390	96.373	5829
3393	96.4483	5768
3396	96.524	5779
3399	96.6002	5738
3402	96.677	5878
3405	96.7545	5654
3408	96.8328	5874
3411	96.9121	6083
3414	96.9924	5906
3417	97.0738	5900
3420	97.1565	5798
3423	97.2406	5900
3426	97.3262	5807
3429	97.4134	5689
3432	97.5023	5872
3435	97.593	5776
3438	97.6856	5830
3441	97.7802	5716
3444	97.877	5928
3447	97.9761	6087
3450	98.0775	5716
3453	98.1811	5716
3456	98.2866	5916
3459	98.3936	5941
3462	98.5016	5752
3465	98.6103	5723
3468	98.7193	6083
3471	98.8283	5757
3474	98.9368	5811
3477	99.0444	5515
3480	99.1508	5738
3483	99.2555	5883
3486	99.3583	5640
3489	99.4592	5730
3492	99.5583	5864
3495	99.6557	5575
3498	99.7514	5847
3501	99.8457	5737
3504	99.9385	5672
3507	100.03	5787
3510	100.12	5708
3513	100.209	5791
3516	100.297	5507
3519	100.384	5644
3522	100.47	5667
3525	100.556	5618
3528	100.64	5580
3531	100.724	5568
3534	100.808	5623
3537	100.891	5639
3540	100.974	5617
3543	101.056	5690
3546	101.139	5695
3549	101.221	5690
3552	101.304	5697
3555	101.386	5576
3558	101.469	5671
3561	101.552	5803
3564	101.636	5512
3567	101.72	5618
3570	101.805	5664
3573	101.89	5655
3576	101.976	5538
3579	102.062	5605
3582	102.149	5663
3585	102.236	5612
3588	102.323	5530
3591	102.411	5701
3594	102.499	5613
3597	102.587	5609
3600	102.676	5533
3603	102.764	5629
3606	102.853	5796
3609	102.942	5705
3612	103.027	5770
3615	103.111	5660
3618	103.196	5622
3621	103.28	5706
3624	103.364	5543
3627	103.449	5596
3630	103.533	5531
3633	103.618	5668
3636	103.702	5450
3639	103.786	5609
3642	103.871	5459
3645	103.955	5607
3648	104.039	5761
3651	104.124	5529
3654	104.208	5494
3657	104.293	5447
3660	104.377	5585
3663	104.461	5527
3666	104.546	5711
3669	104.63	5649
3672	104.714	5532
3675	104.799	5575
3678	104.883	5663
3681	104.967	5586
3684	105.052	5409
3687	105.136	5619
3690	105.221	5626
3693	105.305	5568
3696	105.389	5486
3699	105.474	5488
3702	105.558	5690
3705	105.642	5487
3708	105.727	5685
3711	105.811	5557
3714	105.896	5567
3717	105.98	5571
3720	106.064	5538
3723	106.149	5673
3726	106.233	5526
3729	106.317	5521
3732	106.402	5629
3735	106.486	5530
3738	106.57	5725
3741	106.655	5396
3744	106.739	5697
3747	106.824	5239
3750	106.908	5639
3753	106.992	5629
3756	107.077	5670
3759	107.161	5716
3762	107.245	5588
3765	107.33	5487
3768	107.414	5549
3771	107.499	5736
3774	107.583	5572
3777	107.667	5534
3780	107.752	5664
3783	107.836	5611
3786	107.92	5672
3789	108.005	5568
3792	108.089	5469
3795	108.173	5666
3798	108.258	5409
3801	108.342	5419
3804	108.427	5531
3807	108.511	5419
3810	108.595	5651
3813	108.68	5586
3816	108.764	5436
3819	108.848	5505
3822	108.933	5559
3825	109.017	5384
3828	109.102	5506
3831	109.186	5309
3834	109.27	5425
3837	109.355	5417
3840	109.439	5306
3843	109.523	5485
3846	109.608	5198
3849	109.692	5461
3852	109.776	5557
3855	109.861	5453
3858	109.945	5416
3861	110.03	5305
3864	110.114	5591
3867	110.198	5520
3870	110.283	5383
3873	110.367	5348
3876	110.451	5379
3879	110.536	5269
3882	110.62	5423
3885	110.705	5380
3888	110.789	5356
3891	110.873	5346
3894	110.958	5310
3897	111.042	5359
3900	111.126	5439
3903	111.211	5384
3906	111.295	5340
3909	111.38	5346
3912	111.464	5257
3915	111.548	5501
3918	111.633	5384
3921	111.717	5498
3924	111.801	5597
3927	111.886	5609
3930	111.97	5424
3933	112.054	5639
3936	112.139	5357
3939	112.223	5552
3942	112.308	5532
3945	112.392	5636
3948	112.476	5551
3951	112.561	5425
3954	112.645	5459
3957	112.729	5559
3960	112.814	5572
3963	112.898	5529
3966	112.983	5558
3969	113.067	5439
3972	113.151	5471
3975	113.236	5587
3978	113.32	5399
3981	113.404	5531
3984	113.489	5860
3987	113.573	5491
3990	113.657	5583
3993	113.742	5702
3996	113.826	5647
3999	113.911	5973
4002	113.995	6005
4005	114.079	6051
4008	114.164	6387
4011	114.248	6500
4014	114.332	6750
4017	114.417	7123
4020	114.501	7642
4023	114.586	7997
4026	114.67	8938
4029	114.754	10041
4032	114.839	10506
4035	114.923	10582
4038	115.007	9409
4041	115.092	6170
4044	115.176	2239
4047	115.26	395
4050	115.345	165
4053	115.429	102
4056	115.514	77
4059	115.598	54
4062	115.682	55
4065	115.767	62
4068	115.851	49
4071	115.935	50
4074	116.02	53
4077	116.104	46
4080	116.189	42
4083	116.273	41
4086	116.357	48
4089	116.442	40
4092	116.526	49
4095	116.61	33