File: data/XRD/2021_03_30/steel_csv.dat
 0.1033       39.34
 0.1908       33.60
 0.2782       33.24
 0.3657       40.19
 0.4532       45.30
 0.5407       43.68
 0.6282       50.50
 0.7156       46.90
 0.8031       41.11
 0.8906       46.23
 0.9781       46.40
 1.0656       42.20
 1.1530       44.17
 1.2405       53.85
 1.3280       35.51
 1.4155       45.81
 1.5030       43.72
 1.5904       56.86
 1.6779       47.16
 1.7654       43.00
 1.8529       43.74
 1.9404       46.74
 2.0278       37.43
 2.1153       43.56
 2.2028       47.99
 2.2903       61.69
 2.3778       44.61
 2.4652       51.79
 2.5527       53.90
 2.6402       42.49
 2.7277       53.60
 2.8152       44.10
 2.9026       53.40
 2.9901       46.90
 3.0776       44.67
 3.1651       47.86
 3.2526       51.60
 3.3400       46.00
 3.4275       46.21
 3.5150       59.96
 3.6025       56.88
 3.6900       53.32
 3.7774       54.36
 3.8649       48.86
 3.9524       48.06
 4.0399       57.54
 4.1274       47.86
 4.2148       51.61
 4.3023       44.49
 4.3898       53.55
 4.4773       43.35
 4.5648       51.53
 4.6522       57.30
 4.7397       51.89
 4.8272       54.97
 4.9147       53.95
 5.0022       59.82
 5.0896       57.34
 5.1771       59.95
 5.2646       49.26
 5.3521       52.44
 5.4396       62.89
 5.5270       65.07
 5.6145       63.00
 5.7020       55.54
 5.7895       59.81
 5.8770       63.31
 5.9644       60.53
 6.0519       60.61
 6.1394       54.09
 6.2269       76.77
 6.3144       55.53
 6.4018       74.99
 6.4893       78.42
 6.5768       64.36
 6.6643       79.48
 6.7518       77.57
 6.8392       91.34
 6.9267       92.20
 7.0142       90.27
 7.1017       92.12
 7.1892      111.74
 7.2766      119.34
 7.3641      144.50
 7.4516      151.56
 7.5391      234.62
 7.6266      375.15
 7.7140      775.40
 7.8015     1868.32
 7.8890     3183.69
 7.9765     4408.92
 8.0640     5308.69
 8.1514     6182.93
 8.2389     6464.46
 8.3264     6586.08
 8.4139     6622.93
 8.5014     6659.58
 8.5888     6551.42
 8.6763     6466.04
 8.7638     6314.12
 8.8513     6409.94
 8.9388     6416.17
 9.0262     6243.47
 9.1137     6168.11
 9.2012     6107.13
 9.2887     6190.18
 9.3762     6053.06
 9.4636     6016.43
 9.5511     5981.62
 9.6386     6046.76
 9.7261     6061.87
 9.8136     6059.91
 9.9010     5946.88
 9.9885     6000.46
10.0760     6010.37
10.1635     5898.41
10.2510     5956.28
10.3384     5895.25
10.4259     6004.64
10.5134     6041.32
10.6009     5932.28
10.6884     6012.16
10.7758     5863.27
10.8633     5921.57
10.9508     5938.53
11.0383     5907.75
11.1258     5998.29
11.2132     6022.86
11.3007     5967.21
11.3882     6097.66
11.4757     5936.38
11.5632     6024.93
11.6506     6088.17
11.7381     6077.61
11.8256     6203.42
11.9131     6093.98
12.0006     6102.48
12.0880     6173.71
12.1755     6129.55
12.2630     6195.56
12.3505     6231.52
12.4380     6202.11
12.5254     6296.32
12.6129     6183.42
12.7004     6307.56
12.7879     6137.35
12.8754     6128.62
12.9628     6121.92
13.0503     6269.35
13.1378     6137.75
13.2253     6319.55
13.3128     6088.18
13.4002     6058.60
13.4877     6289.93
13.5752     6254.09
13.6627     6014.87
13.7502     6234.92
13.8376     6047.56
13.9251     6389.34
14.0126     6254.30
14.1001     6153.08
14.1876     6217.95
14.2750     6184.21
14.3625     6291.60
14.4500     6131.43
14.5375     6352.51
14.6250     6288.09
14.7124     6139.53
14.7999     6244.39
14.8874     6330.86
14.9749     6250.31
15.0624     6228.59
15.1498     6199.71
15.2373     6269.36
15.3248     6183.87
15.4123     6150.46
15.4998     6395.72
15.5872     6089.15
15.6747     6105.77
15.7622     6156.58
15.8497     6257.66
15.9372     6240.47
16.0246     6278.71
16.1121     6369.14
16.1996     6289.66
16.2871     6171.59
16.3746     6261.59
16.4620     6296.55
16.5495     6355.05
16.6370     6292.85
16.7245     6129.11
16.8120     6255.24
16.8994     6184.12
16.9869     6207.83
17.0744     6268.78
17.1619     6203.20
17.2494     6245.04
17.3368     6334.69
17.4243     6332.81
17.5118     6172.44
17.5993     6245.89
17.6868     6238.86
17.7742     6222.89
17.8617     6335.40
17.9492     6368.85
18.0367     6426.55
18.1242     6287.00
18.2116     6390.96
18.2991     6250.23
18.3866     6449.04
18.4741     6372.56
18.5616     6323.78
18.6490     6476.30
18.7365     6310.81
18.8240     6321.92
18.9115     6277.25
18.9990     6417.08
19.0864     6338.16
19.1739     6417.40
19.2614     6252.68
19.3489     6130.97
19.4364     6367.64
19.5238     6358.34
19.6113     6454.61
19.6988     6282.73
19.7863     6313.98
19.8738     6507.89
19.9612     6372.29
20.0487     6313.66
20.1362     6385.99
20.2237     6293.38
20.3112     6389.25
20.3986     6173.69
20.4861     6316.10
20.5736     6399.06
20.6611     6342.45
20.7486     6345.43
20.8360     6300.51
20.9235     6420.30
21.0110     6348.92
21.0985     6319.86
21.1860     6267.57
21.2734     6306.89
21.3609     6350.61
21.4484     6508.66
21.5359     6331.43
21.6234     6231.94
21.7108     6336.77
21.7983     6271.21
21.8858     6452.74
21.9733     6338.34
22.0608     6396.18
22.1482     6440.47
22.2357     6396.85
22.3232     6417.58
22.4107     6390.82
22.4982     6327.61
22.5856     6422.02
22.6731     6374.21
22.7606     6368.51
22.8481     6366.00
22.9356     6448.24
23.0230     6370.05
23.1105     6320.85
23.1980     6266.03
23.2855     6530.51
23.3730     6536.73
23.4604     6315.82
23.5479     6399.42
23.6354     6402.89
23.7229     6459.44
23.8104     6425.73
23.8978     6447.69
23.9853     6396.41
24.0728     6395.56
24.1603     6328.44
24.2478     6530.51
24.3352     6351.78
24.4227     6360.47
24.5102     6286.51
24.5977     6505.63
24.6852     6447.96
24.7726     6423.07
24.8601     6459.23
24.9476     6338.19
25.0351     6412.58
25.1226     6328.02
25.2100     6518.99
25.2975     6525.56
25.3850     6446.66
25.4725     6451.66
25.5600     6442.73
25.6474     6503.73
25.7349     6473.54
25.8224     6446.59
25.9099     6500.68
25.9974     6459.64
26.0848     6583.99
26.1723     6571.09
26.2598     6564.97
26.3473     6485.13
26.4348     6560.09
26.5222     6602.45
26.6097     6493.20
26.6972     6443.36
26.7847     6466.07
26.8722     6398.91
26.9596     6452.08
27.0471     6507.83
27.1346     6464.70
27.2221     6393.38
27.3096     6531.22
27.3970     6608.83
27.4845     6378.56
27.5720     6426.73
27.6595     6540.13
27.7470     6484.90
27.8344     6524.30
27.9219     6588.23
28.0094     6582.92
28.0969     6659.88
28.1844     6557.52
28.2718     6584.01
28.3593     6539.43
28.4468     6613.45
28.5343     6553.13
28.6218     6512.31
28.7092     6485.85
28.7967     6580.07
28.8842     6482.65
28.9717     6517.05
29.0592     6632.04
29.1466     6460.57
29.2341     6442.63
29.3216     6465.31
29.4091     6523.87
29.4966     6422.92
29.5840     6577.07
29.6715     6339.65
29.7590     6547.61
29.8465     6554.16
29.9340     6604.75
30.0214     6552.01
30.1089     6419.75
30.1964     6470.31
30.2839     6465.91
30.3714     6482.16
30.4588     6481.26
30.5463     6434.61
30.6338     6422.16
30.7213     6453.22
30.8088     6415.54
30.8962     6432.98
30.9837     6459.13
31.0712     6443.11
31.1587     6481.51
31.2462     6532.40
31.3336     6418.76
31.4211     6412.15
31.5086     6479.07
31.5961     6434.75
31.6836     6473.69
31.7710     6557.44
31.8585     6372.17
31.9460     6556.01
32.0335     6479.67
32.1210     6569.85
32.2084     6452.31
32.2959     6478.06
32.3834     6511.55
32.4709     6525.31
32.5584     6548.81
32.6458     6496.00
32.7333     6422.26
32.8208     6463.49
32.9083     6499.81
32.9958     6464.54
33.0832     6507.40
33.1707     6625.20
33.2582     6595.73
33.3457     6595.26
33.4332     6525.24
33.5206     6511.61
33.6081     6388.91
33.6956     6445.55
33.7831     6396.96
33.8706     6643.00
33.9580     6530.80
34.0455     6392.05
34.1330     6428.91
34.2205     6497.96
34.3080     6490.48
34.3954     6548.72
34.4829     6493.81
34.5704     6427.01
34.6579     6592.01
34.7454     6677.81
34.8328     6664.15
34.9203     6591.81
35.0078     6623.09
35.0953     6650.26
35.1828     6684.19
35.2702     6571.88
35.3577     6476.70
35.4452     6716.78
35.5327     6679.57
35.6202     6465.38
35.7076     6573.63
35.7951     6568.99
35.8826     6576.05
35.9701     6637.46
36.0576     6404.71
36.1450     6601.14
36.2325     6644.69
36.3200     6564.62
36.4075     6643.58
36.4950     6483.86
36.5824     6602.02
36.6699     6543.73
36.7574     6664.11
36.8449     6585.64
36.9324     6497.51
37.0198     6523.01
37.1073     6672.62
37.1948     6701.80
37.2823     6548.65
37.3698     6601.01
37.4572     6685.84
37.5447     6606.31
37.6322     6656.11
37.7197     6643.14
37.8072     6727.11
37.8946     6631.32
37.9821     6568.33
38.0696     6717.39
38.1571     6660.19
38.2446     6581.43
38.3320     6620.09
38.4195     6650.94
38.5070     6594.43
38.5945     6729.37
38.6820     6628.15
38.7694     6693.30
38.8569     6601.67
38.9444     6646.40
39.0319     6684.59
39.1194     6662.68
39.2068     6593.23
39.2943     6684.17
39.3818     6835.65
39.4693     6655.20
39.5568     6522.70
39.6442     6427.99
39.7317     6556.69
39.8192     6698.36
39.9067     6551.00
39.9942     6680.32
40.0816     6573.29
40.1691     6632.77
40.2566     6619.37
40.3441     6704.55
40.4316     6662.13
40.5190     6711.53
40.6065     6707.77
40.6940     6595.03
40.7815     6622.88
40.8690     6589.01
40.9564     6699.98
41.0439     6727.56
41.1314     6681.70
41.2189     6641.33
41.3064     6672.09
41.3938     6707.69
41.4813     6760.21
41.5688     6591.49
41.6563     6558.80
41.7438     6618.28
41.8312     6615.66
41.9187     6674.00
42.0062     6594.70
42.0937     6605.00
42.1812     6543.23
42.2686     6525.39
42.3561     6605.37
42.4436     6570.90
42.5311     6452.60
42.6186     6695.11
42.7060     6749.68
42.7935     6586.45
42.8810     6719.56
42.9685     6756.59
43.0560     6925.55
43.1434     6986.56
43.2309     7173.82
43.3184     7348.60
43.4059     7686.29
43.4934     7803.83
43.5808     8079.59
43.6683     8328.47
43.7558     8463.92
43.8433     8616.60
43.9308     8863.74
44.0182     8711.94
44.1057     8419.16
44.1932     8356.00
44.2807     8175.49
44.3682     8063.38
44.4556     7793.32
44.5431     7684.81
44.6306     7731.07
44.7181     7505.64
44.8056     7267.52
44.8930     7059.61
44.9805     6866.44
45.0680     6727.29
45.1555     6714.29
45.2430     6667.89
45.3304     6496.24
45.4179     6609.80
45.5054     6686.95
45.5929     6792.34
45.6804     6801.30
45.7678     6621.35
45.8553     6590.84
45.9428     6922.19
46.0303     6784.58
46.1178     6830.20
46.2052     6866.56
46.2927     6827.99
46.3802     6779.15
46.4677     6834.91
46.5552     6696.67
46.6426     6822.93
46.7301     6812.34
46.8176     6654.76
46.9051     6711.65
46.9926     6670.08
47.0800     6597.53
47.1675     6787.39
47.2550     6719.97
47.3425     6680.52
47.4300     6876.07
47.5174     6935.81
47.6049     6794.65
47.6924     6730.42
47.7799     6737.54
47.8674     6800.55
47.9548     6593.16
48.0423     6715.32
48.1298     6782.93
48.2173     6789.77
48.3048     6758.31
48.3922     6726.47
48.4797     6743.87
48.5672     6704.86
48.6547     6754.49
48.7422     6802.66
48.8296     6685.10
48.9171     6599.71
49.0046     6743.32
49.0921     6770.89
49.1796     6885.92
49.2670     6731.72
49.3545     6803.77
49.4420     6726.90
49.5295     6682.51
49.6170     6984.65
49.7044     6811.73
49.7919     6907.27
49.8794     6551.24
49.9669     6882.45
50.0544     6784.96
50.1418     6704.36
50.2293     6811.04
50.3168     6820.13
50.4043     6904.35
50.4918     6807.20
50.5792     6865.57
50.6667     6885.15
50.7542     6871.48
50.8417     6894.10
50.9292     6924.66
51.0166     6982.61
51.1041     6742.68
51.1916     6776.29
51.2791     6734.12
51.3666     6861.33
51.4540     6888.61
51.5415     6811.13
51.6290     6743.73
51.7165     6739.27
51.8040     6789.08
51.8914     6765.65
51.9789     6741.18
52.0664     6941.91
52.1539     6950.70
52.2414     6717.17
52.3288     6736.15
52.4163     6785.09
52.5038     6809.11
52.5913     6772.97
52.6788     6864.98
52.7662     6888.22
52.8537     6517.66
52.9412     6712.57
53.0287     6819.36
53.1162     6775.99
53.2036     6654.60
53.2911     6744.76
53.3786     6898.57
53.4661     6814.55
53.5536     6786.82
53.6410     6876.15
53.7285     6640.36
53.8160     6689.91
53.9035     6727.31
53.9910     6765.17
54.0784     6710.20
54.1659     6607.25
54.2534     6715.43
54.3409     6592.86
54.4284     6783.26
54.5158     6872.97
54.6033     6910.88
54.6908     6685.50
54.7783     6888.98
54.8658     6856.20
54.9532     6814.93
55.0407     6738.89
55.1282     6885.11
55.2157     6806.69
55.3032     6871.51
55.3906     6817.08
55.4781     6807.06
55.5656     6881.09
55.6531     6634.47
55.7406     6927.46
55.8280     6657.40
55.9155     6765.93
56.0030     6592.01
56.0905     6566.39
56.1780     6780.31
56.2654     6597.25
56.3529     6868.77
56.4404     6779.41
56.5279     6820.33
56.6154     6461.33
56.7028     6807.27
56.7903     6820.14
56.8778     6751.49
56.9653     6828.85
57.0528     6757.93
57.1402     6714.82
57.2277     6617.62
57.3152     6730.84
57.4027     6784.34
57.4902     6776.43
57.5776     6818.68
57.6651     6707.93
57.7526     6749.72
57.8401     6662.55
57.9276     6765.70
58.0150     6727.73
58.1025     6650.53
58.1900     6709.50
58.2775     6790.52
58.3650     6666.33
58.4524     6637.05
58.5399     6848.35
58.6274     6830.13
58.7149     6714.53
58.8024     6725.65
58.8898     6803.89
58.9773     6852.99
59.0648     6716.94
59.1523     6909.44
59.2398     6814.48
59.3272     6725.25
59.4147     6726.59
59.5022     6762.69
59.5897     6761.08
59.6772     6580.69
59.7646     6799.39
59.8521     6836.75
59.9396     6762.64
60.0271     6765.75
60.1146     6809.79
60.2020     6703.22
60.2895     6743.23
60.3770     6822.84
60.4645     6888.68
60.5520     6757.92
60.6394     6663.53
60.7269     6611.70
60.8144     6892.97
60.9019     6770.03
60.9894     6763.04
61.0768     6782.27
61.1643     6724.45
61.2518     6662.44
61.3393     6778.00
61.4268     6847.04
61.5142     6643.82
61.6017     6774.41
61.6892     6884.08
61.7767     6738.39
61.8642     6615.82
61.9516     6871.43
62.0391     6680.76
62.1266     6751.07
62.2141     6560.53
62.3016     6840.14
62.3890     6667.62
62.4765     6648.33
62.5640     6769.12
62.6515     6648.24
62.7390     6505.04
62.8264     6689.65
62.9139     6818.00
63.0014     6692.59
63.0889     6819.66
63.1764     6769.65
63.2638     6933.48
63.3513     6408.93
63.4388     6788.74
63.5263     6708.83
63.6138     6840.69
63.7012     6800.00
63.7887     6740.38
63.8762     6822.32
63.9637     6597.57
64.0512     6849.02
64.1386     6959.82
64.2261     6918.33
64.3136     6696.53
64.4011     6764.62
64.4886     7012.66
64.5760     6726.23
64.6635     6700.91
64.7510     6965.13
64.8385     6723.91
64.9260     6920.34
65.0134     6492.64
65.1009     6770.28
65.1884     6714.07
65.2759     6736.31
65.3634     6858.94
65.4508     6623.65
65.5383     6726.17
65.6258     6722.55
65.7133     6680.91
65.8008     6736.56
65.8882     6722.70
65.9757     6490.00
66.0632     6690.70
66.1507     6605.12
66.2382     6600.59
66.3256     6446.34
66.4131     6723.81
66.5006     6589.66
66.5881     6600.05
66.6756     6698.43
66.7630     6763.66
66.8505     6630.00
66.9380     6745.37
67.0255     6593.36
67.1130     6639.52
67.2004     6807.84
67.2879     6649.40
67.3754     6640.10
67.4629     6818.84
67.5504     6594.87
67.6378     6730.61
67.7253     6706.84
67.8128     6734.95
67.9003     6677.54
67.9878     6690.26
68.0752     6678.36
68.1627     6636.99
68.2502     6609.46
68.3377     6626.69
68.4252     6645.53
68.5126     6723.32
68.6001     6659.21
68.6876     6720.61
68.7751     6603.85
68.8626     6672.03
68.9500     6670.21
69.0375     6698.59
69.1250     6622.52
69.2125     6643.24
69.3000     6498.00
69.3874     6575.94
69.4749     6445.51
69.5624     6491.64
69.6499     6509.48
69.7374     6405.83
69.8248     6535.73
69.9123     6422.15
69.9998     6635.20
70.0873     6579.83
70.1748     6482.78
70.2622     6440.93
70.3497     6470.84
70.4372     6649.59
70.5247     6617.42
70.6122     6502.77
70.6996     6579.43
70.7871     6525.03
70.8746     6556.30
70.9621     6565.36
71.0496     6591.08
71.1370     6609.68
71.2245     6550.18
71.3120     6534.27
71.3995     6413.63
71.4870     6557.24
71.5744     6604.88
71.6619     6641.85
71.7494     6639.45
71.8369     6518.55
71.9244     6583.98
72.0118     6663.99
72.0993     6611.68
72.1868     6588.89
72.2743     6669.04
72.3618     6551.86
72.4492     6527.47
72.5367     6619.97
72.6242     6689.79
72.7117     6550.63
72.7992     6592.59
72.8866     6470.99
72.9741     6680.64
73.0616     6505.74
73.1491     6678.07
73.2366     6478.09
73.3240     6581.63
73.4115     6755.80
73.4990     6560.14
73.5865     6557.91
73.6740     6540.06
73.7614     6469.63
73.8489     6451.66
73.9364     6478.25
74.0239     6447.48
74.1114     6646.43
74.1988     6498.34
74.2863     6553.15
74.3738     6643.87
74.4613     6474.67
74.5488     6344.14
74.6362     6684.75
74.7237     6540.65
74.8112     6516.99
74.8987     6520.03
74.9862     6514.29
75.0736     6520.94
75.1611     6560.28
75.2486     6516.74
75.3361     6555.25
75.4236     6433.84
75.5110     6544.41
75.5985     6481.73
75.6860     6426.04
75.7735     6451.75
75.8610     6378.41
75.9484     6395.11
76.0359     6386.16
76.1234     6356.49
76.2109     6371.70
76.2984     6349.49
76.3858     6427.36
76.4733     6406.37
76.5608     6484.36
76.6483     6566.90
76.7358     6536.90
76.8232     6514.38
76.9107     6394.81
76.9982     6432.45
77.0857     6568.75
77.1732     6487.68
77.2606     6587.74
77.3481     6554.63
77.4356     6590.32
77.5231     6533.86
77.6106     6368.35
77.6980     6585.05
77.7855     6433.67
77.8730     6420.29
77.9605     6414.11
78.0480     6404.66
78.1354     6388.43
78.2229     6459.10
78.3104     6358.16
78.3979     6337.72
78.4854     6296.84
78.5728     6377.24
78.6603     6438.71
78.7478     6416.40
78.8353     6360.27
78.9228     6380.32
79.0102     6399.38
79.0977     6496.59
79.1852     6416.67
79.2727     6112.96
79.3602     6374.83
79.4476     6304.89
79.5351     6379.94
79.6226     6334.89
79.7101     6342.93
79.7976     6326.02
79.8850     6470.48
79.9725     6317.18
80.0600     6453.17
80.1475     6375.23
80.2350     6428.48
80.3224     6515.32
80.4099     6526.47
80.4974     6701.79
80.5849     6650.37
80.6724     6839.28
80.7598     6846.66
80.8473     6738.61
80.9348     6981.88
81.0223     6960.21
81.1098     6844.01
81.1972     7050.00
81.2847     6930.57
81.3722     6905.82
81.4597     7018.81
81.5472     7062.50
81.6346     6855.81
81.7221     6997.88
81.8096     6957.48
81.8971     6832.21
81.9846     6857.29
82.0720     6690.99
82.1595     6608.09
82.2470     6578.85
82.3345     6434.26
82.4220     6478.39
82.5094     6463.59
82.5969     6389.99
82.6844     6258.51
82.7719     6214.23
82.8594     6242.15
82.9468     6380.45
83.0343     6263.56
83.1218     6220.84
83.2093     6293.10
83.2968     6195.70
83.3842     6213.76
83.4717     6318.73
83.5592     6290.52
83.6467     6378.69
83.7342     6295.14
83.8216     6303.72
83.9091     6117.97
83.9966     6321.73
84.0841     6194.79
84.1716     6318.59
84.2590     6434.10
84.3465     6251.42
84.4340     6357.61
84.5215     6365.57
84.6090     6341.22
84.6964     6322.12
84.7839     6374.68
84.8714     6242.06
84.9589     6335.01
85.0464     6262.59
85.1338     6333.57
85.2213     6272.43
85.3088     6065.52
85.3963     6358.32
85.4838     6380.30
85.5712     6437.11
85.6587     6403.76
85.7462     6274.21
85.8337     6309.61
85.9212     6355.65
86.0086     6582.90
86.0961     6279.19
86.1836     6124.87
86.2711     6237.65
86.3586     6254.50
86.4460     6390.31
86.5335     6334.16
86.6210     6323.06
86.7085     6289.25
86.7960     6169.97
86.8834     6386.37
86.9709     6291.86
87.0584     6208.38
87.1459     6261.53
87.2334     6175.04
87.3208     6227.08
87.4083     6211.60
87.4958     6234.26
87.5833     6319.72
87.6708     6351.82
87.7582     6146.88
87.8457     6274.60
87.9332     6277.43
88.0207     6037.99
88.1082     6253.19
88.1956     6332.38
88.2831     6141.69
88.3706     6234.48
88.4581     6167.84
88.5456     6132.33
88.6330     5980.05
88.7205     6313.12
88.8080     6325.61
88.8955     6075.38
88.9830     6002.73
89.0704     6299.61
89.1579     6200.48
89.2454     6212.23
89.3329     6184.28
89.4204     6140.14
89.5078     6032.67
89.5953     6335.55
89.6828     6137.50
89.7703     6265.86
89.8578     6147.58
89.9452     6100.46
90.0327     6148.71
90.1202     6239.13
90.2077     6050.26
90.2952     6068.45
90.3826     6148.08
90.4701     6179.72
90.5576     6253.21
90.6451     6100.45
90.7326     6235.44
90.8200     6115.21
90.9075     6156.86
90.9950     5928.55
91.0825     6213.86
91.1700     6143.98
91.2574     5978.71
91.3449     6182.91
91.4324     6102.31
91.5199     6188.37
91.6074     6119.77
91.6948     6261.23
91.7823     6071.26
91.8698     6152.80
91.9573     6377.74
92.0448     6143.05
92.1322     5953.65
92.2197     6093.31
92.3072     6246.94
92.3947     6111.99
92.4822     6090.70
92.5696     5982.58
92.6571     6238.38
92.7446     6080.62
92.8321     6102.26
92.9196     6020.62
93.0070     6154.63
93.0945     6013.76
93.1820     6108.21
93.2695     6064.13
93.3570     6158.29
93.4444     6165.27
93.5319     6109.53
93.6194     6036.73
93.7069     6016.96
93.7944     6225.38
93.8818     6232.70
93.9693     6119.10
94.0568     6060.82
94.1443     6394.40
94.2318     6065.12
94.3192     6027.38
94.4067     6124.71
94.4942     6069.67
94.5817     6162.51
94.6692     6061.18
94.7566     6031.20
94.8441     6122.08
94.9316     5936.32
95.0191     6050.37
95.1066     6045.43
95.1940     5891.83
95.2815     6029.91
95.3690     5992.20
95.4565     6003.94
95.5440     5991.49
95.6314     6023.73
95.7189     5972.44
95.8064     6012.70
95.8939     5927.09
95.9814     6024.51
96.0688     5974.93
96.1563     5956.17
96.2438     6209.72
96.3313     6023.93
96.4188     6004.91
96.5062     6047.98
96.5937     6079.78
96.6812     6019.56
96.7687     6011.09
96.8562     6094.03
96.9436     6035.12
97.0311     6006.81
97.1186     6153.19
97.2061     6135.24
97.2936     6116.72
97.3810     6157.31
97.4685     6193.26
97.5560     6200.47
97.6435     6238.56
97.7310     5950.75
97.8184     6158.40
97.9059     6320.51
97.9934     6215.49
98.0809     6127.00
98.1684     6231.74
98.2558     6234.16
98.3433     6186.64
98.4308     6226.72
98.5183     6153.41
98.6058     6078.97
98.6932     6092.16
98.7807     6017.54
98.8682     6015.37
98.9557     5970.45
99.0432     5915.50
99.1306     6119.91
99.2181     6006.99
99.3056     5961.12
99.3931     5953.61
99.4806     6007.59
99.5680     5958.24
99.6555     5954.85
99.7430     6008.62
99.8305     6096.47
99.9180     5897.84
100.0054     5892.31
100.0929     5989.63
100.1804     5911.50
100.2679     6011.68
100.3554     6016.12
100.4428     5938.93
100.5303     5912.38
100.6178     5882.12
100.7053     5891.46
100.7928     5865.56
100.8802     5959.69
100.9677     5774.34
101.0552     5915.66
101.1427     5891.86
101.2302     5811.81
101.3176     5713.27
101.4051     5807.81
101.4926     6008.43
101.5801     5913.78
101.6676     5786.38
101.7550     6018.76
101.8425     5906.85
101.9300     5837.47
102.0175     5877.20
102.1050     5982.06
102.1924     5919.11
102.2799     5917.85
102.3674     5903.38
102.4549     5968.15
102.5424     5883.32
102.6298     5834.77
102.7173     5787.60
102.8048     5868.80
102.8923     6035.85
102.9798     5837.25
103.0672     5970.46
103.1547     5920.63
103.2422     5767.35
103.3297     5982.48
103.4172     5882.33
103.5046     5797.96
103.5921     5927.77
103.6796     5706.31
103.7671     5979.73
103.8546     5745.68
103.9420     5764.98
104.0295     5926.39
104.1170     5905.31
104.2045     5861.69
104.2920     5855.34
104.3794     5809.63
104.4669     5796.60
104.5544     5827.05
104.6419     5866.97
104.7294     5835.38
104.8168     5735.44
104.9043     6001.19
104.9918     5855.45
105.0793     5701.38
105.1668     6038.67
105.2542     5881.37
105.3417     5758.41
105.4292     5753.70
105.5167     5912.49
105.6042     5855.10
105.6916     6008.61
105.7791     5777.27
105.8666     5817.18
105.9541     5825.43
106.0416     5755.19
106.1290     5842.76
106.2165     5808.62
106.3040     5893.58
106.3915     5899.04
106.4790     5875.05
106.5664     5908.85
106.6539     5730.69
106.7414     5818.02
106.8289     5864.99
106.9164     5762.68
107.0038     5866.05
107.0913     5833.08
107.1788     5897.51
107.2663     5814.17
107.3538     5718.46
107.4412     5804.27
107.5287     5824.67
107.6162     5784.82
107.7037     5875.54
107.7912     5799.40
107.8786     5918.33
107.9661     6080.27
108.0536     5767.98
108.1411     5860.00
108.2286     5645.57
108.3160     5763.95
108.4035     5927.96
108.4910     5755.42
108.5785     5653.72
108.6660     5831.75
108.7534     5811.71
108.8409     5712.72
108.9284     5747.57
109.0159     5785.69
109.1034     5673.73
109.1908     5531.57
109.2783     5822.08
109.3658     5639.90
109.4533     5738.51
109.5408     5607.58
109.6282     5621.35
109.7157     5611.91
109.8032     5629.91
109.8907     5685.00
109.9782     5712.44
110.0656     5640.55
110.1531     5543.20
110.2406     5705.16
110.3281     5594.71
110.4156     5680.76
110.5030     5416.62
110.5905     5599.51
110.6780     5639.16
110.7655     5484.73
110.8530     5618.06
110.9404     5574.29
111.0279     5547.24
111.1154     5523.55
111.2029     5543.98
111.2904     5568.35
111.3778     5677.73
111.4653     5613.09
111.5528     5739.89
111.6403     5616.30
111.7278     5710.33
111.8152     5837.01
111.9027     5773.53
111.9902     5975.89
112.0777     5717.84
112.1652     5613.94
112.2526     5860.01
112.3401     5726.78
112.4276     5759.75
112.5151     5743.16
112.6026     5515.81
112.6900     5661.76
112.7775     5854.80
112.8650     5979.30
112.9525     5735.97
113.0400     5855.17
113.1274     5877.53
113.2149     5781.54
113.3024     5880.68
113.3899     5730.27
113.4774     5883.61
113.5648     5951.90
113.6523     5896.06
113.7398     6021.55
113.8273     5971.35
113.9148     6263.03
114.0022     6285.82
114.0897     6467.93
114.1772     6720.81
114.2647     6954.93
114.3522     7166.97
114.4396     7429.12
114.5271     8057.72
114.6146     8666.08
114.7021     9679.67
114.7896    10833.84
114.8770    11191.37
114.9645    11184.04
115.0520     9216.25
115.1395     4772.98
115.2270     1099.11
115.3144      269.17
115.4019      145.40
115.4894       92.62
115.5769       91.25
115.6644       58.84
115.7518       56.20
115.8393       54.02
115.9268       66.98
116.0143       55.71
116.1018       58.61
116.1892       43.33
116.2767       50.28
116.3642       48.11
116.4517       41.90
116.5392       46.70
116.5975       44.95