File: data/XRD/2021_03_30/zro2.txt
 0.1033       28.01
 0.1908       25.60
 0.2782       24.29
 0.3657       29.84
 0.4532       25.61
 0.5407       22.70
 0.6282       29.13
 0.7156       26.46
 0.8031       30.11
 0.8906       31.52
 0.9781       33.06
 1.0656       35.65
 1.1530       26.08
 1.2405       25.62
 1.3280       21.43
 1.4155       23.62
 1.5030       31.89
 1.5904       23.19
 1.6779       33.88
 1.7654       35.48
 1.8529       27.24
 1.9404       36.32
 2.0278       41.28
 2.1153       35.30
 2.2028       40.02
 2.2903       56.09
 2.3778       57.19
 2.4652       59.49
 2.5527       61.07
 2.6402       40.16
 2.7277       58.20
 2.8152       37.50
 2.9026       41.27
 2.9901       40.20
 3.0776       44.00
 3.1651       44.50
 3.2526       35.80
 3.3400       34.43
 3.4275       47.95
 3.5150       40.00
 3.6025       41.53
 3.6900       46.31
 3.7774       47.38
 3.8649       41.88
 3.9524       35.32
 4.0399       46.69
 4.1274       35.04
 4.2148       35.27
 4.3023       34.45
 4.3898       40.80
 4.4773       42.85
 4.5648       33.95
 4.6522       41.13
 4.7397       39.34
 4.8272       43.36
 4.9147       39.02
 5.0022       37.35
 5.0896       40.87
 5.1771       38.43
 5.2646       43.26
 5.3521       37.31
 5.4396       42.78
 5.5270       47.93
 5.6145       46.80
 5.7020       45.54
 5.7895       45.58
 5.8770       45.30
 5.9644       49.80
 6.0519       57.74
 6.1394       44.51
 6.2269       47.11
 6.3144       51.47
 6.4018       53.50
 6.4893       53.26
 6.5768       58.68
 6.6643       69.74
 6.7518       61.43
 6.8392       64.27
 6.9267       81.24
 7.0142       77.63
 7.1017       62.73
 7.1892       89.43
 7.2766       98.21
 7.3641      108.58
 7.4516      157.44
 7.5391      240.79
 7.6266      362.80
 7.7140      771.49
 7.8015     1886.65
 7.8890     3059.83
 7.9765     4009.57
 8.0640     4756.34
 8.1514     5126.49
 8.2389     5338.54
 8.3264     5386.80
 8.4139     5397.43
 8.5014     5253.82
 8.5888     5325.43
 8.6763     5280.05
 8.7638     5165.12
 8.8513     5280.99
 8.9388     5373.71
 9.0262     5240.01
 9.1137     5132.18
 9.2012     5133.85
 9.2887     5164.40
 9.3762     5083.52
 9.4636     4944.04
 9.5511     5150.17
 9.6386     5070.23
 9.7261     5099.93
 9.8136     5087.13
 9.9010     4923.91
 9.9885     4993.98
10.0760     4953.41
10.1635     5062.66
10.2510     4974.05
10.3384     4971.20
10.4259     5023.64
10.5134     5083.09
10.6009     5001.63
10.6884     5104.85
10.7758     5119.80
10.8633     5027.39
10.9508     5052.60
11.0383     5164.47
11.1258     5106.28
11.2132     5162.33
11.3007     5180.77
11.3882     5127.20
11.4757     4975.06
11.5632     5083.84
11.6506     5112.12
11.7381     5149.10
11.8256     5325.13
11.9131     5136.65
12.0006     5184.74
12.0880     5196.02
12.1755     5320.81
12.2630     5248.92
12.3505     5379.97
12.4380     5292.60
12.5254     5344.78
12.6129     5104.26
12.7004     5149.99
12.7879     5279.56
12.8754     5147.79
12.9628     5390.44
13.0503     5242.86
13.1378     5298.87
13.2253     5283.82
13.3128     5222.32
13.4002     5307.37
13.4877     5275.63
13.5752     5317.11
13.6627     5151.08
13.7502     5422.35
13.8376     5246.96
13.9251     5412.33
14.0126     5467.29
14.1001     5458.15
14.1876     5272.35
14.2750     5261.15
14.3625     5372.19
14.4500     5471.37
14.5375     5414.18
14.6250     5570.06
14.7124     5474.44
14.7999     5371.75
14.8874     5379.77
14.9749     5439.36
15.0624     5360.04
15.1498     5347.20
15.2373     5309.25
15.3248     5359.29
15.4123     5310.04
15.4998     5360.64
15.5872     5386.41
15.6747     5291.52
15.7622     5364.34
15.8497     5357.46
15.9372     5430.31
16.0246     5263.80
16.1121     5380.65
16.1996     5328.66
16.2871     5301.24
16.3746     5350.30
16.4620     5375.23
16.5495     5368.75
16.6370     5418.73
16.7245     5382.66
16.8120     5397.01
16.8994     5313.94
16.9869     5477.37
17.0744     5399.10
17.1619     5458.41
17.2494     5398.40
17.3368     5523.22
17.4243     5403.32
17.5118     5418.54
17.5993     5358.84
17.6868     5427.60
17.7742     5366.99
17.8617     5499.74
17.9492     5450.34
18.0367     5464.44
18.1242     5456.44
18.2116     5387.02
18.2991     5527.05
18.3866     5469.17
18.4741     5413.12
18.5616     5441.92
18.6490     5462.83
18.7365     5345.44
18.8240     5589.04
18.9115     5483.33
18.9990     5497.86
19.0864     5459.45
19.1739     5524.82
19.2614     5463.76
19.3489     5324.58
19.4364     5452.91
19.5238     5458.71
19.6113     5470.69
19.6988     5478.45
19.7863     5567.44
19.8738     5542.34
19.9612     5503.54
20.0487     5474.43
20.1362     5575.34
20.2237     5551.25
20.3112     5565.97
20.3986     5492.07
20.4861     5528.90
20.5736     5530.55
20.6611     5517.43
20.7486     5456.58
20.8360     5442.32
20.9235     5492.55
21.0110     5416.14
21.0985     5558.92
21.1860     5349.86
21.2734     5494.91
21.3609     5561.21
21.4484     5574.52
21.5359     5721.37
21.6234     5473.93
21.7108     5469.11
21.7983     5442.19
21.8858     5614.61
21.9733     5486.31
22.0608     5536.31
22.1482     5578.15
22.2357     5559.44
22.3232     5430.05
22.4107     5504.89
22.4982     5388.56
22.5856     5579.08
22.6731     5566.22
22.7606     5473.47
22.8481     5466.16
22.9356     5483.12
23.0230     5569.27
23.1105     5720.18
23.1980     5527.20
23.2855     5495.69
23.3730     5506.87
23.4604     5436.94
23.5479     5457.60
23.6354     5586.71
23.7229     5589.79
23.8104     5537.04
23.8978     5521.58
23.9853     5521.08
24.0728     5559.18
24.1603     5586.02
24.2478     5580.85
24.3352     5454.76
24.4227     5544.93
24.5102     5575.32
24.5977     5534.45
24.6852     5659.18
24.7726     5513.64
24.8601     5657.14
24.9476     5628.58
25.0351     5643.07
25.1226     5447.83
25.2100     5544.40
25.2975     5659.64
25.3850     5640.13
25.4725     5557.06
25.5600     5722.93
25.6474     5568.45
25.7349     5623.57
25.8224     5551.39
25.9099     5691.21
25.9974     5665.52
26.0848     5712.15
26.1723     5757.12
26.2598     5522.47
26.3473     5572.80
26.4348     5580.83
26.5222     5755.38
26.6097     5625.26
26.6972     5551.24
26.7847     5570.01
26.8722     5704.78
26.9596     5579.98
27.0471     5701.85
27.1346     5614.35
27.2221     5673.09
27.3096     5574.47
27.3970     5670.34
27.4845     5704.91
27.5720     5761.14
27.6595     5575.38
27.7470     5779.25
27.8344     5678.25
27.9219     5755.55
28.0094     5741.15
28.0969     5891.22
28.1844     5685.26
28.2718     5643.46
28.3593     5647.84
28.4468     6040.33
28.5343     5808.87
28.6218     5710.66
28.7092     5826.78
28.7967     5864.62
28.8842     5839.95
28.9717     5974.47
29.0592     6129.28
29.1466     6101.68
29.2341     6204.36
29.3216     6150.79
29.4091     6415.33
29.4966     6312.36
29.5840     6501.19
29.6715     6442.13
29.7590     6481.97
29.8465     6754.64
29.9340     6768.83
30.0214     6662.16
30.1089     6780.83
30.1964     6574.41
30.2839     6624.69
30.3714     6420.60
30.4588     6344.28
30.5463     6260.82
30.6338     6295.25
30.7213     6148.15
30.8088     6160.77
30.8962     6012.05
30.9837     5990.92
31.0712     5878.78
31.1587     5962.30
31.2462     5734.79
31.3336     5681.01
31.4211     5817.09
31.5086     5796.63
31.5961     5686.96
31.6836     5736.97
31.7710     5795.74
31.8585     5642.55
31.9460     5715.32
32.0335     5694.72
32.1210     5675.39
32.2084     5637.78
32.2959     5678.29
32.3834     5682.33
32.4709     5761.27
32.5584     5774.21
32.6458     5730.68
32.7333     5704.80
32.8208     5802.67
32.9083     5770.62
32.9958     5605.44
33.0832     5643.06
33.1707     5736.98
33.2582     5624.14
33.3457     5722.91
33.4332     5874.50
33.5206     5673.50
33.6081     5600.01
33.6956     5778.95
33.7831     5704.30
33.8706     5783.42
33.9580     5794.04
34.0455     5678.47
34.1330     5828.00
34.2205     5816.87
34.3080     5742.87
34.3954     5842.56
34.4829     5868.85
34.5704     5875.45
34.6579     5924.51
34.7454     5902.42
34.8328     6028.33
34.9203     5946.37
35.0078     5913.75
35.0953     5935.24
35.1828     5852.89
35.2702     5919.40
35.3577     5873.36
35.4452     6003.82
35.5327     6088.38
35.6202     5832.50
35.7076     5817.26
35.7951     5802.66
35.8826     5807.12
35.9701     5832.62
36.0576     5721.78
36.1450     5858.86
36.2325     5755.98
36.3200     5749.41
36.4075     5851.35
36.4950     5788.95
36.5824     5654.48
36.6699     5763.54
36.7574     5586.31
36.8449     5675.24
36.9324     5742.70
37.0198     5626.48
37.1073     5596.99
37.1948     5776.14
37.2823     5727.48
37.3698     5726.94
37.4572     5690.30
37.5447     5794.32
37.6322     5799.55
37.7197     5663.36
37.8072     5790.16
37.8946     5816.40
37.9821     5714.92
38.0696     5738.96
38.1571     5761.62
38.2446     5830.02
38.3320     5808.78
38.4195     5793.21
38.5070     5791.25
38.5945     5660.06
38.6820     5776.91
38.7694     5666.42
38.8569     5747.52
38.9444     5809.72
39.0319     5749.58
39.1194     5805.50
39.2068     5697.04
39.2943     5700.24
39.3818     5774.29
39.4693     5837.18
39.5568     5842.56
39.6442     5909.72
39.7317     5843.45
39.8192     5700.17
39.9067     5746.57
39.9942     5713.88
40.0816     5760.05
40.1691     5767.54
40.2566     5710.55
40.3441     5898.91
40.4316     5765.61
40.5190     5831.06
40.6065     5724.74
40.6940     5812.24
40.7815     5786.33
40.8690     5845.43
40.9564     5795.02
41.0439     5968.15
41.1314     5849.35
41.2189     5878.33
41.3064     5784.05
41.3938     5828.12
41.4813     5671.02
41.5688     5778.77
41.6563     5674.93
41.7438     5713.19
41.8312     5642.69
41.9187     5740.13
42.0062     5764.79
42.0937     5732.30
42.1812     5703.11
42.2686     5704.07
42.3561     5706.82
42.4436     5736.96
42.5311     5673.58
42.6186     5892.88
42.7060     5803.31
42.7935     5679.46
42.8810     5796.00
42.9685     5874.26
43.0560     5904.64
43.1434     6039.29
43.2309     5997.37
43.3184     6120.54
43.4059     6467.22
43.4934     6431.93
43.5808     6701.52
43.6683     6766.90
43.7558     7105.79
43.8433     7044.93
43.9308     7155.43
44.0182     7468.64
44.1057     7649.34
44.1932     7519.48
44.2807     7551.00
44.3682     7424.33
44.4556     7267.30
44.5431     6936.74
44.6306     6829.81
44.7181     6610.23
44.8056     6554.80
44.8930     6232.81
44.9805     6143.67
45.0680     6030.34
45.1555     5870.85
45.2430     5937.70
45.3304     5895.10
45.4179     5773.85
45.5054     5916.66
45.5929     5799.44
45.6804     5863.51
45.7678     5871.43
45.8553     5766.64
45.9428     5755.79
46.0303     5879.10
46.1178     5928.44
46.2052     5948.28
46.2927     5814.92
46.3802     5881.58
46.4677     5850.72
46.5552     5878.20
46.6426     5909.83
46.7301     5811.33
46.8176     5733.76
46.9051     5848.98
46.9926     5871.30
47.0800     5848.60
47.1675     5667.21
47.2550     6014.02
47.3425     5837.31
47.4300     5857.88
47.5174     6014.57
47.6049     5906.45
47.6924     5909.09
47.7799     5915.13
47.8674     5809.59
47.9548     5935.29
48.0423     5961.50
48.1298     5931.67
48.2173     6010.38
48.3048     5953.77
48.3922     5977.99
48.4797     5739.34
48.5672     6048.49
48.6547     5842.93
48.7422     6132.84
48.8296     5934.84
48.9171     5969.74
49.0046     6080.46
49.0921     6018.33
49.1796     6136.31
49.2670     6058.38
49.3545     6187.09
49.4420     6095.57
49.5295     6173.44
49.6170     6408.06
49.7044     6290.45
49.7919     6240.41
49.8794     6202.73
49.9669     6530.95
50.0544     6398.11
50.1418     6299.27
50.2293     6375.52
50.3168     6350.75
50.4043     6224.46
50.4918     6262.58
50.5792     6311.36
50.6667     6196.89
50.7542     6202.49
50.8417     6248.31
50.9292     6146.84
51.0166     6098.89
51.1041     6044.62
51.1916     5970.50
51.2791     6074.94
51.3666     6089.32
51.4540     5958.29
51.5415     5958.24
51.6290     5875.55
51.7165     5904.28
51.8040     5839.11
51.8914     5919.87
51.9789     5914.42
52.0664     5926.75
52.1539     5905.94
52.2414     5778.06
52.3288     5679.92
52.4163     5910.52
52.5038     5908.04
52.5913     5804.26
52.6788     5918.12
52.7662     5970.01
52.8537     5739.96
52.9412     5910.42
53.0287     5912.59
53.1162     6027.73
53.2036     5880.50
53.2911     5971.85
53.3786     5928.54
53.4661     5894.08
53.5536     5824.90
53.6410     5994.77
53.7285     5801.63
53.8160     5815.65
53.9035     6026.48
53.9910     5806.02
54.0784     5941.29
54.1659     5765.08
54.2534     5858.33
54.3409     5828.86
54.4284     5919.93
54.5158     5997.61
54.6033     6001.62
54.6908     5867.39
54.7783     5801.52
54.8658     5881.91
54.9532     5867.59
55.0407     5817.76
55.1282     5962.12
55.2157     5963.26
55.3032     5979.26
55.3906     5913.30
55.4781     5832.38
55.5656     6009.72
55.6531     5746.92
55.7406     5957.94
55.8280     5782.56
55.9155     6013.86
56.0030     5658.04
56.0905     5781.45
56.1780     5960.26
56.2654     5890.77
56.3529     5978.38
56.4404     5876.43
56.5279     5827.72
56.6154     5766.74
56.7028     5945.35
56.7903     6068.66
56.8778     5803.73
56.9653     6046.81
57.0528     5857.04
57.1402     5751.78
57.2277     5610.81
57.3152     5898.67
57.4027     5882.09
57.4902     5827.49
57.5776     5864.44
57.6651     5874.08
57.7526     5918.99
57.8401     5744.56
57.9276     5914.75
58.0150     5854.44
58.1025     5906.30
58.1900     5841.69
58.2775     5905.99
58.3650     6018.63
58.4524     5966.03
58.5399     6042.34
58.6274     6188.01
58.7149     5994.05
58.8024     6063.74
58.8898     6046.67
58.9773     6203.31
59.0648     6051.90
59.1523     6177.36
59.2398     6216.86
59.3272     6109.73
59.4147     6115.06
59.5022     6229.57
59.5897     6113.28
59.6772     5882.35
59.7646     5899.01
59.8521     6181.46
59.9396     6240.27
60.0271     6116.77
60.1146     6130.99
60.2020     6110.30
60.2895     6121.50
60.3770     6019.69
60.4645     6085.39
60.5520     6014.02
60.6394     5898.53
60.7269     5960.71
60.8144     5935.13
60.9019     5974.76
60.9894     5936.06
61.0768     6010.05
61.1643     5852.11
61.2518     5751.61
61.3393     6118.16
61.4268     6010.40
61.5142     5839.80
61.6017     5955.31
61.6892     5858.65
61.7767     6027.62
61.8642     5782.42
61.9516     5877.47
62.0391     6019.84
62.1266     5877.67
62.2141     5856.56
62.3016     6011.72
62.3890     5907.46
62.4765     5909.10
62.5640     5746.40
62.6515     5883.97
62.7390     5791.27
62.8264     5899.12
62.9139     5958.00
63.0014     5910.49
63.0889     6002.53
63.1764     5775.98
63.2638     5884.99
63.3513     5731.86
63.4388     5907.87
63.5263     5841.04
63.6138     5880.68
63.7012     5751.57
63.7887     5951.30
63.8762     5826.56
63.9637     5798.60
64.0512     5960.61
64.1386     5919.46
64.2261     5906.15
64.3136     5871.57
64.4011     5870.00
64.4886     5969.23
64.5760     5777.76
64.6635     5767.33
64.7510     5989.75
64.8385     5878.60
64.9260     5981.31
65.0134     5687.50
65.1009     5914.72
65.1884     5751.00
65.2759     5841.71
65.3634     5864.52
65.4508     5740.91
65.5383     5804.85
65.6258     5781.47
65.7133     5728.21
65.8008     5801.24
65.8882     5692.30
65.9757     5640.00
66.0632     5800.47
66.1507     5710.57
66.2382     5667.49
66.3256     5797.58
66.4131     5783.70
66.5006     5713.01
66.5881     5769.80
66.6756     5725.41
66.7630     5746.93
66.8505     5934.02
66.9380     5720.51
67.0255     5823.37
67.1130     5779.63
67.2004     5769.17
67.2879     5875.31
67.3754     5815.07
67.4629     5759.51
67.5504     5809.63
67.6378     5886.67
67.7253     5852.01
67.8128     5954.47
67.9003     5717.80
67.9878     5861.00
68.0752     5884.48
68.1627     5730.65
68.2502     5752.29
68.3377     5753.70
68.4252     5902.67
68.5126     5892.36
68.6001     5843.48
68.6876     5756.95
68.7751     5839.10
68.8626     5641.87
68.9500     5802.40
69.0375     5640.90
69.1250     5784.16
69.2125     5645.20
69.3000     5704.26
69.3874     5770.79
69.4749     5604.08
69.5624     5645.40
69.6499     5581.82
69.7374     5600.06
69.8248     5694.67
69.9123     5626.91
69.9998     5577.85
70.0873     5842.00
70.1748     5760.75
70.2622     5828.41
70.3497     5698.92
70.4372     5705.63
70.5247     5643.28
70.6122     5667.94
70.6996     5648.52
70.7871     5626.23
70.8746     5741.86
70.9621     5786.55
71.0496     5804.40
71.1370     5836.33
71.2245     5593.07
71.3120     5759.53
71.3995     5718.86
71.4870     5738.43
71.5744     5696.22
71.6619     5856.95
71.7494     5767.97
71.8369     5744.23
71.9244     5714.59
72.0118     5767.79
72.0993     5633.76
72.1868     5744.22
72.2743     5796.36
72.3618     5813.24
72.4492     5761.84
72.5367     5685.56
72.6242     5744.52
72.7117     5749.20
72.7992     5757.84
72.8866     5653.65
72.9741     5719.78
73.0616     5841.76
73.1491     5754.42
73.2366     5786.61
73.3240     5669.50
73.4115     5901.83
73.4990     5728.17
73.5865     5659.70
73.6740     5695.70
73.7614     5635.34
73.8489     5742.69
73.9364     5692.45
74.0239     5674.77
74.1114     5810.24
74.1988     5659.94
74.2863     5546.25
74.3738     5780.54
74.4613     5781.69
74.5488     5551.14
74.6362     5774.93
74.7237     5747.62
74.8112     5705.86
74.8987     5793.00
74.9862     5607.95
75.0736     5644.29
75.1611     5663.61
75.2486     5722.61
75.3361     5618.26
75.4236     5679.51
75.5110     5780.76
75.5985     5631.04
75.6860     5643.26
75.7735     5524.71
75.8610     5683.55
75.9484     5547.74
76.0359     5625.36
76.1234     5657.98
76.2109     5527.03
76.2984     5525.18
76.3858     5686.52
76.4733     5649.99
76.5608     5639.79
76.6483     5529.14
76.7358     5609.44
76.8232     5531.55
76.9107     5500.84
76.9982     5671.59
77.0857     5707.33
77.1732     5672.17
77.2606     5646.00
77.3481     5778.34
77.4356     5722.39
77.5231     5716.71
77.6106     5645.64
77.6980     5728.68
77.7855     5637.72
77.8730     5652.78
77.9605     5574.12
78.0480     5606.82
78.1354     5772.14
78.2229     5635.78
78.3104     5614.40
78.3979     5605.38
78.4854     5605.50
78.5728     5500.36
78.6603     5558.17
78.7478     5549.70
78.8353     5522.92
78.9228     5513.35
79.0102     5542.86
79.0977     5680.47
79.1852     5493.01
79.2727     5385.05
79.3602     5647.96
79.4476     5487.51
79.5351     5555.81
79.6226     5387.08
79.7101     5558.97
79.7976     5535.01
79.8850     5626.11
79.9725     5492.57
80.0600     5672.75
80.1475     5606.68
80.2350     5620.71
80.3224     5645.82
80.4099     5894.01
80.4974     5868.07
80.5849     5839.29
80.6724     5943.35
80.7598     5973.72
80.8473     5885.52
80.9348     6158.54
81.0223     6296.11
81.1098     6226.01
81.1972     6337.26
81.2847     6335.68
81.3722     6279.71
81.4597     6460.38
81.5472     6290.98
81.6346     6191.86
81.7221     6232.84
81.8096     6089.53
81.8971     6026.52
81.9846     6027.05
82.0720     6034.00
82.1595     5844.21
82.2470     5893.69
82.3345     5890.25
82.4220     5938.43
82.5094     5873.13
82.5969     5627.93
82.6844     5735.00
82.7719     5604.75
82.8594     5505.57
82.9468     5635.70
83.0343     5591.66
83.1218     5374.76
83.2093     5606.90
83.2968     5433.47
83.3842     5528.94
83.4717     5640.85
83.5592     5644.93
83.6467     5473.91
83.7342     5573.00
83.8216     5631.29
83.9091     5463.65
83.9966     5437.81
84.0841     5422.74
84.1716     5549.71
84.2590     5559.73
84.3465     5402.56
84.4340     5552.22
84.5215     5557.05
84.6090     5512.90
84.6964     5573.01
84.7839     5655.73
84.8714     5602.34
84.9589     5644.21
85.0464     5545.08
85.1338     5577.21
85.2213     5631.66
85.3088     5449.27
85.3963     5575.34
85.4838     5630.04
85.5712     5615.18
85.6587     5405.41
85.7462     5588.87
85.8337     5684.39
85.9212     5529.72
86.0086     5664.87
86.0961     5580.59
86.1836     5354.59
86.2711     5541.47
86.3586     5463.00
86.4460     5584.24
86.5335     5525.62
86.6210     5502.64
86.7085     5484.23
86.7960     5477.83
86.8834     5540.79
86.9709     5460.84
87.0584     5519.64
87.1459     5602.90
87.2334     5458.23
87.3208     5335.99
87.4083     5505.54
87.4958     5436.67
87.5833     5551.84
87.6708     5466.62
87.7582     5448.14
87.8457     5495.05
87.9332     5447.94
88.0207     5316.11
88.1082     5376.22
88.1956     5551.59
88.2831     5431.31
88.3706     5492.13
88.4581     5485.81
88.5456     5463.65
88.6330     5260.99
88.7205     5429.54
88.8080     5536.88
88.8955     5251.33
88.9830     5260.41
89.0704     5466.26
89.1579     5340.84
89.2454     5403.94
89.3329     5512.16
89.4204     5332.60
89.5078     5295.81
89.5953     5425.91
89.6828     5418.96
89.7703     5429.54
89.8578     5437.26
89.9452     5427.95
90.0327     5339.06
90.1202     5354.71
90.2077     5287.85
90.2952     5387.22
90.3826     5308.28
90.4701     5322.41
90.5576     5372.88
90.6451     5323.80
90.7326     5484.80
90.8200     5356.66
90.9075     5509.75
90.9950     5344.03
91.0825     5401.97
91.1700     5504.49
91.2574     5356.25
91.3449     5476.01
91.4324     5409.46
91.5199     5358.77
91.6074     5320.66
91.6948     5521.65
91.7823     5312.14
91.8698     5423.18
91.9573     5593.58
92.0448     5503.09
92.1322     5281.97
92.2197     5290.36
92.3072     5408.69
92.3947     5296.70
92.4822     5280.82
92.5696     5510.15
92.6571     5388.26
92.7446     5241.96
92.8321     5333.35
92.9196     5269.33
93.0070     5394.47
93.0945     5347.67
93.1820     5379.72
93.2695     5281.81
93.3570     5513.04
93.4444     5478.91
93.5319     5340.67
93.6194     5308.15
93.7069     5309.30
93.7944     5410.08
93.8818     5451.91
93.9693     5389.16
94.0568     5248.36
94.1443     5391.63
94.2318     5436.95
94.3192     5444.93
94.4067     5275.24
94.4942     5310.89
94.5817     5434.87
94.6692     5358.18
94.7566     5543.75
94.8441     5532.36
94.9316     5362.61
95.0191     5425.09
95.1066     5415.88
95.1940     5277.02
95.2815     5420.75
95.3690     5361.62
95.4565     5320.43
95.5440     5329.70
95.6314     5397.58
95.7189     5393.07
95.8064     5382.27
95.8939     5375.02
95.9814     5153.31
96.0688     5353.34
96.1563     5428.28
96.2438     5383.93
96.3313     5298.41
96.4188     5303.02
96.5062     5306.20
96.5937     5435.90
96.6812     5345.63
96.7687     5296.02
96.8562     5416.49
96.9436     5317.75
97.0311     5485.86
97.1186     5399.81
97.2061     5463.54
97.2936     5320.10
97.3810     5392.57
97.4685     5507.56
97.5560     5536.64
97.6435     5552.91
97.7310     5431.76
97.8184     5352.63
97.9059     5469.58
97.9934     5453.42
98.0809     5377.00
98.1684     5186.38
98.2558     5249.31
98.3433     5357.81
98.4308     5465.61
98.5183     5555.29
98.6058     5235.37
98.6932     5148.53
98.7807     5313.23
98.8682     5157.72
98.9557     5154.54
99.0432     5155.95
99.1306     5265.95
99.2181     5173.38
99.3056     5236.82
99.3931     5221.88
99.4806     5264.70
99.5680     5191.81
99.6555     5149.87
99.7430     5251.06
99.8305     5403.15
99.9180     5292.83
100.0054     5245.66
100.0929     5304.40
100.1804     5325.98
100.2679     5261.96
100.3554     5276.31
100.4428     5226.36
100.5303     5179.61
100.6178     5223.66
100.7053     5195.82
100.7928     5263.39
100.8802     5238.69
100.9677     5196.53
101.0552     5160.06
101.1427     5200.38
101.2302     5236.46
101.3176     5236.64
101.4051     5195.41
101.4926     5315.16
101.5801     5329.01
101.6676     5111.42
101.7550     5211.60
101.8425     5219.38
101.9300     5168.89
102.0175     5289.10
102.1050     5367.18
102.1924     5072.09
102.2799     5233.88
102.3674     5258.27
102.4549     5341.15
102.5424     5261.09
102.6298     5271.69
102.7173     5095.11
102.8048     5145.33
102.8923     5143.96
102.9798     5231.71
103.0672     5113.55
103.1547     5217.75
103.2422     5131.01
103.3297     5324.38
103.4172     5150.81
103.5046     5165.88
103.5921     5207.74
103.6796     5182.85
103.7671     5250.84
103.8546     5123.99
103.9420     5140.68
104.0295     5210.34
104.1170     5148.18
104.2045     5248.56
104.2920     5149.45
104.3794     5193.41
104.4669     5094.83
104.5544     5155.99
104.6419     5172.92
104.7294     5118.54
104.8168     5121.46
104.9043     5267.83
104.9918     5156.00
105.0793     5090.38
105.1668     5213.33
105.2542     5084.13
105.3417     5065.17
105.4292     5040.27
105.5167     5217.34
105.6042     5083.50
105.6916     5094.92
105.7791     5172.75
105.8666     5114.79
105.9541     5066.66
106.0416     5113.57
106.1290     5161.63
106.2165     5149.34
106.3040     5244.09
106.3915     5142.06
106.4790     5164.34
106.5664     5177.89
106.6539     5125.81
106.7414     5179.47
106.8289     5094.04
106.9164     5041.45
107.0038     5116.64
107.0913     5112.22
107.1788     5114.28
107.2663     5092.06
107.3538     5077.30
107.4412     5120.24
107.5287     5092.18
107.6162     5131.07
107.7037     4886.95
107.7912     5073.14
107.8786     5076.88
107.9661     5167.80
108.0536     5101.93
108.1411     5077.53
108.2286     4977.53
108.3160     5055.09
108.4035     5217.29
108.4910     5059.16
108.5785     5119.30
108.6660     5140.56
108.7534     5111.71
108.8409     5108.23
108.9284     5089.50
109.0159     5059.38
109.1034     4964.39
109.1908     5034.50
109.2783     5146.26
109.3658     4931.12
109.4533     4937.12
109.5408     5004.79
109.6282     4747.22
109.7157     4987.09
109.8032     5058.03
109.8907     5010.76
109.9782     4972.56
110.0656     4886.83
110.1531     5084.00
110.2406     4844.85
110.3281     4891.89
110.4156     4816.05
110.5030     4823.68
110.5905     4973.36
110.6780     5080.32
110.7655     4900.30
110.8530     4968.94
110.9404     4963.51
111.0279     5148.55
111.1154     4789.94
111.2029     4985.02
111.2904     4953.70
111.3778     5015.14
111.4653     4954.36
111.5528     5169.22
111.6403     5012.44
111.7278     5087.73
111.8152     5025.49
111.9027     5103.42
111.9902     5021.40
112.0777     5107.40
112.1652     5114.52
112.2526     5070.00
112.3401     5121.29
112.4276     5127.55
112.5151     5085.31
112.6026     4869.56
112.6900     5101.53
112.7775     5184.77
112.8650     5180.27
112.9525     5023.19
113.0400     5005.73
113.1274     5125.67
113.2149     5109.98
113.3024     5158.74
113.3899     5164.39
113.4774     5089.95
113.5648     5225.22
113.6523     5337.10
113.7398     5449.96
113.8273     5212.55
113.9148     5553.66
114.0022     5457.85
114.0897     5640.54
114.1772     5885.84
114.2647     6079.02
114.3522     6343.99
114.4396     6579.90
114.5271     6975.43
114.6146     7671.65
114.7021     8546.18
114.7896     9430.13
114.8770     9706.93
114.9645     9623.72
115.0520     7890.72
115.1395     4279.26
115.2270     1079.04
115.3144      187.89
115.4019      117.86
115.4894       77.08
115.5769       66.07
115.6644       44.20
115.7518       40.37
115.8393       36.04
115.9268       41.15
116.0143       51.24
116.1018       43.91
116.1892       39.59
116.2767       28.41
116.3642       36.81
116.4517       31.53
116.5392       23.41
116.5975       37.03