File: data/XRD/Plot/207_6113_10x2F_v18T40_T500v2.txt
#Index	X	Acquisition
0	-2.81233	5
3	-2.72587	25
6	-2.6394	26
9	-2.55294	29
12	-2.46648	23
15	-2.38002	21
18	-2.29356	27
21	-2.2071	18
24	-2.12064	26
27	-2.03418	21
30	-1.94772	22
33	-1.86126	24
36	-1.7748	29
39	-1.68834	25
42	-1.60188	27
45	-1.51542	28
48	-1.42896	26
51	-1.3425	24
54	-1.25604	22
57	-1.16958	44
60	-1.08311	31
63	-0.996654	39
66	-0.910193	23
69	-0.823733	20
72	-0.737272	16
75	-0.650812	26
78	-0.564351	20
81	-0.47789	21
84	-0.39143	33
87	-0.304969	25
90	-0.218509	26
93	-0.132048	33
96	-0.0455875	22
99	0.0408731	28
102	0.127334	23
105	0.213794	28
108	0.300255	22
111	0.386717	24
114	0.473178	27
117	0.55964	26
120	0.646103	21
123	0.732566	30
126	0.819029	29
129	0.905494	31
132	0.991959	35
135	1.07843	37
138	1.16489	24
141	1.25136	26
144	1.33783	19
147	1.4243	23
150	1.51077	33
153	1.59725	21
156	1.68372	32
159	1.7702	36
162	1.85667	25
165	1.94315	36
168	2.02963	42
171	2.11612	35
174	2.2026	40
177	2.28909	56
180	2.37558	57
183	2.46207	59
186	2.54856	62
189	2.63506	39
192	2.72156	57
195	2.80806	34
198	2.89456	41
201	2.98107	36
204	3.06757	45
207	3.15409	39
210	3.2406	35
213	3.32712	34
216	3.41364	54
219	3.50016	39
222	3.58669	41
225	3.67322	48
228	3.75975	45
231	3.84628	40
234	3.93282	34
237	4.01937	46
240	4.10591	43
243	4.19246	33
246	4.27902	25
249	4.36558	58
252	4.45214	42
255	4.5387	41
258	4.62528	32
261	4.71185	45
264	4.79843	57
267	4.88501	39
270	4.9716	49
273	5.05819	46
276	5.14479	44
279	5.23139	41
282	5.31799	67
285	5.4046	47
288	5.49122	47
291	5.57784	34
294	5.66447	50
297	5.7511	38
300	5.83773	52
303	5.92437	47
306	6.01102	54
309	6.09767	51
312	6.18433	53
315	6.27099	50
318	6.35766	58
321	6.44434	61
324	6.53102	62
327	6.6177	57
330	6.70439	66
333	6.79109	67
336	6.8778	68
339	6.96451	73
342	7.05122	85
345	7.13795	72
348	7.22468	80
351	7.31141	80
354	7.39815	134
357	7.4849	195
360	7.57166	266
363	7.65842	449
366	7.74519	1180
369	7.83197	2324
372	7.91875	3333
375	8.00555	4193
378	8.09234	4829
381	8.17915	5246
384	8.26596	5249
387	8.35278	5383
390	8.43961	5351
393	8.52645	5320
396	8.61329	5398
399	8.70014	5331
402	8.787	5369
405	8.87387	5175
408	8.96074	5288
411	9.04762	5208
414	9.13452	5155
417	9.22141	5142
420	9.30832	5098
423	9.39524	5132
426	9.48216	4996
429	9.5691	5226
432	9.65604	5023
435	9.74299	4976
438	9.82995	5059
441	9.91692	4915
444	10.0039	5054
447	10.0909	4894
450	10.1779	5073
453	10.2649	4926
456	10.3519	4963
459	10.4389	5047
462	10.5259	5059
465	10.613	4975
468	10.7	5113
471	10.7871	5147
474	10.8742	4990
477	10.9613	5074
480	11.0483	5184
483	11.1354	5141
486	11.2226	5181
489	11.3097	5188
492	11.3968	5123
495	11.4839	4927
498	11.5711	5075
501	11.6583	5024
504	11.7454	5131
507	11.8326	5318
510	11.9198	5124
513	12.007	5234
516	12.0942	5213
519	12.1815	5331
522	12.2687	5216
525	12.3559	5421
528	12.4432	5305
531	12.5305	5361
534	12.6178	5068
537	12.705	5157
540	12.7923	5296
543	12.8797	5143
546	12.967	5400
549	13.0543	5254
552	13.1417	5286
555	13.229	5293
558	13.3164	5199
561	13.4038	5302
564	13.4912	5308
567	13.5786	5320
570	13.666	5124
573	13.7535	5453
576	13.8409	5234
579	13.9284	5446
582	14.0159	5515
585	14.1033	5490
588	14.1908	5243
591	14.2784	5257
594	14.3659	5370
597	14.4534	5483
600	14.541	5396
603	14.6285	5616
606	14.7161	5503
609	14.8037	5365
612	14.8913	5355
615	14.9789	5461
618	15.0665	5350
621	15.1542	5336
624	15.2418	5328
627	15.3295	5387
630	15.4172	5262
633	15.5049	5347
636	15.5926	5400
639	15.6803	5278
642	15.7681	5383
645	15.8558	5337
648	15.9436	5415
651	16.0314	5222
654	16.1192	5399
657	16.207	5328
660	16.2948	5306
663	16.3827	5375
666	16.4705	5313
669	16.5584	5319
672	16.6463	5414
675	16.7342	5361
678	16.8221	5411
681	16.91	5259
684	16.998	5476
687	17.0859	5461
690	17.1739	5430
693	17.2619	5338
696	17.3499	5529
699	17.4379	5436
702	17.526	5405
705	17.614	5266
708	17.7021	5456
711	17.7902	5397
714	17.8783	5567
717	17.9664	5340
720	18.0545	5602
723	18.1427	5405
726	18.2308	5542
729	18.319	5524
732	18.4072	5407
735	18.4954	5405
738	18.5837	5426
741	18.6719	5315
744	18.7602	5423
747	18.8485	5374
750	18.9368	5364
753	19.0251	5412
756	19.1134	5424
759	19.2018	5433
762	19.2901	5398
765	19.3785	5434
768	19.4669	5429
771	19.5554	5430
774	19.6438	5639
777	19.7322	5513
780	19.8207	5516
783	19.9092	5473
786	19.9977	5447
789	20.0862	5412
792	20.1748	5503
795	20.2634	5527
798	20.3519	5428
801	20.4405	5452
804	20.5292	5526
807	20.6178	5500
810	20.7064	5565
813	20.7951	5455
816	20.8838	5468
819	20.9725	5497
822	21.0612	5406
825	21.1499	5502
828	21.2387	5515
831	21.3275	5568
834	21.4162	5618
837	21.505	5493
840	21.5938	5420
843	21.6826	5289
846	21.7714	5443
849	21.8602	5530
852	21.9491	5477
855	22.0379	5468
858	22.1268	5628
861	22.2156	5507
864	22.3045	5402
867	22.3933	5421
870	22.4822	5419
873	22.5711	5612
876	22.66	5537
879	22.7488	5465
882	22.8377	5473
885	22.9266	5456
888	23.0155	5577
891	23.1044	5745
894	23.1933	5528
897	23.2821	5495
900	23.371	5505
903	23.4599	5430
906	23.5488	5447
909	23.6377	5598
912	23.7265	5577
915	23.8154	5506
918	23.9042	5550
921	23.9931	5539
924	24.0819	5568
927	24.1708	5510
930	24.2596	5546
933	24.3484	5481
936	24.4373	5493
939	24.5261	5685
942	24.6149	5608
945	24.7036	5702
948	24.7924	5667
951	24.8812	5558
954	24.9699	5739
957	25.0586	5571
960	25.1474	5655
963	25.2361	5661
966	25.3247	5545
969	25.4134	5526
972	25.5021	5592
975	25.5907	5566
978	25.6793	5694
981	25.7679	5643
984	25.8565	5599
987	25.9451	5688
990	26.0336	5560
993	26.1221	5882
996	26.2106	5666
999	26.2991	5550
1002	26.3875	5524
1005	26.476	5626
1008	26.5644	5721
1011	26.6527	5670
1014	26.7411	5593
1017	26.8294	5553
1020	26.9177	5535
1023	27.006	5653
1026	27.0942	5597
1029	27.1824	5695
1032	27.2706	5569
1035	27.3588	5599
1038	27.4469	5899
1041	27.535	5690
1044	27.623	5876
1047	27.7111	5821
1050	27.7991	5868
1053	27.887	5600
1056	27.9749	5686
1059	28.0628	5823
1062	28.1507	5901
1065	28.2385	5723
1068	28.3263	5601
1071	28.414	5986
1074	28.5017	5704
1077	28.5894	5810
1080	28.677	5851
1083	28.7646	5826
1086	28.8521	5970
1089	28.9396	5935
1092	29.0271	6163
1095	29.1145	6121
1098	29.2019	6184
1101	29.2892	6220
1104	29.3765	6170
1107	29.4638	6437
1110	29.551	6617
1113	29.6382	6513
1116	29.7253	6598
1119	29.8124	6791
1122	29.8995	6782
1125	29.9866	6836
1128	30.0736	6693
1131	30.1606	6782
1134	30.2476	6611
1137	30.3345	6554
1140	30.4215	6362
1143	30.5084	6376
1146	30.5953	6153
1149	30.6823	6147
1152	30.7692	6241
1155	30.856	6109
1158	30.9429	5878
1161	31.0298	5937
1164	31.1167	5902
1167	31.2036	5732
1170	31.2904	5834
1173	31.3773	5877
1176	31.4642	5860
1179	31.5511	5678
1182	31.638	5742
1185	31.7249	5757
1188	31.8118	5688
1191	31.8988	5659
1194	31.9857	5648
1197	32.0727	5758
1200	32.1597	5771
1203	32.2467	5609
1206	32.3337	5707
1209	32.4208	5982
1212	32.5079	5826
1215	32.595	5696
1218	32.6822	5669
1221	32.7694	5875
1224	32.8566	5788
1227	32.9439	5813
1230	33.0312	5661
1233	33.1185	5751
1236	33.2059	5689
1239	33.2933	5706
1242	33.3808	5782
1245	33.4684	5635
1248	33.5559	5678
1251	33.6436	5655
1254	33.7313	5797
1257	33.819	5667
1260	33.9068	5769
1263	33.9947	5597
1266	34.0826	5621
1269	34.1705	5813
1272	34.2585	5736
1275	34.3466	5898
1278	34.4346	5691
1281	34.5227	5815
1284	34.6109	5861
1287	34.699	5958
1290	34.7872	5947
1293	34.8754	5708
1296	34.9637	6004
1299	35.0519	5824
1302	35.1402	6038
1305	35.2284	5814
1308	35.3167	5889
1311	35.405	5849
1314	35.4932	5992
1317	35.5815	5799
1320	35.6697	5866
1323	35.758	5845
1326	35.8462	5763
1329	35.9344	5738
1332	36.0226	5792
1335	36.1108	5778
1338	36.1989	5716
1341	36.287	5798
1344	36.3752	5655
1347	36.4633	5579
1350	36.5514	5682
1353	36.6395	5793
1356	36.7275	5588
1359	36.8156	5875
1362	36.9037	5915
1365	36.9917	5683
1368	37.0798	5649
1371	37.1678	5832
1374	37.2559	5734
1377	37.344	5796
1380	37.432	5730
1383	37.5201	5702
1386	37.6082	5815
1389	37.6962	5659
1392	37.7843	5733
1395	37.8724	5940
1398	37.9605	5730
1401	38.0486	5784
1404	38.1368	5757
1407	38.2249	5856
1410	38.3131	5778
1413	38.4013	5829
1416	38.4895	5800
1419	38.5777	5628
1422	38.6659	5778
1425	38.7542	5627
1428	38.8425	5729
1431	38.9308	5810
1434	39.0192	5785
1437	39.1076	5790
1440	39.196	5703
1443	39.2844	5701
1446	39.3729	5775
1449	39.4614	5842
1452	39.55	5853
1455	39.6386	5911
1458	39.7272	5842
1461	39.8159	5688
1464	39.9046	5741
1467	39.9933	5712
1470	40.0821	5754
1473	40.1709	5793
1476	40.2598	5727
1479	40.3487	5917
1482	40.4376	5722
1485	40.5265	5835
1488	40.6154	5791
1491	40.7043	5838
1494	40.7933	5723
1497	40.8822	5792
1500	40.9712	5854
1503	41.0601	5988
1506	41.149	5745
1509	41.2379	5920
1512	41.3268	5777
1515	41.4157	5961
1518	41.5045	5794
1521	41.5934	5747
1524	41.6821	5818
1527	41.7709	5756
1530	41.8596	5763
1533	41.9482	5862
1536	42.0369	5751
1539	42.1254	5910
1542	42.2139	5625
1545	42.3024	5683
1548	42.3907	5705
1551	42.479	5692
1554	42.5673	5813
1557	42.6554	5843
1560	42.7435	5650
1563	42.8315	5724
1566	42.9194	5782
1569	43.0072	5909
1572	43.0949	5811
1575	43.1826	6091
1578	43.2701	6158
1581	43.3575	6259
1584	43.4448	6455
1587	43.532	6792
1590	43.6191	6731
1593	43.706	6970
1596	43.7929	7122
1599	43.8797	7161
1602	43.9664	7306
1605	44.0531	7318
1608	44.1397	7626
1611	44.2263	7445
1614	44.3128	7553
1617	44.3993	7317
1620	44.4859	7218
1623	44.5724	6958
1626	44.6589	6774
1629	44.7455	6553
1632	44.832	6282
1635	44.9187	6155
1638	45.0053	6093
1641	45.0921	5881
1644	45.1789	6030
1647	45.2658	5880
1650	45.3528	5768
1653	45.4399	5632
1656	45.5271	5782
1659	45.6145	5809
1662	45.702	5853
1665	45.7896	5763
1668	45.8774	5849
1671	45.9654	5865
1674	46.0535	5938
1677	46.1418	5997
1680	46.2304	5928
1683	46.3191	5864
1686	46.4081	5738
1689	46.4973	5840
1692	46.5867	5971
1695	46.6764	5770
1698	46.7663	6003
1701	46.8566	5930
1704	46.9471	5767
1707	47.0378	5798
1710	47.1288	5798
1713	47.2201	5812
1716	47.3114	5793
1719	47.4029	5872
1722	47.4945	6109
1725	47.5862	5926
1728	47.6779	5907
1731	47.7696	5929
1734	47.8612	5809
1737	47.9528	5924
1740	48.0443	5938
1743	48.1356	5952
1746	48.2267	6022
1749	48.3176	5919
1752	48.4083	5981
1755	48.4987	5833
1758	48.5888	5863
1761	48.6785	6010
1764	48.768	6165
1767	48.8572	5921
1770	48.9461	6140
1773	49.0348	6020
1776	49.1232	6169
1779	49.2115	6052
1782	49.2995	6303
1785	49.3874	6223
1788	49.4752	6314
1791	49.5629	6184
1794	49.6504	6270
1797	49.7379	6253
1800	49.8253	6234
1803	49.9127	6292
1806	50.0001	6460
1809	50.0874	6229
1812	50.1748	6129
1815	50.2622	6305
1818	50.3497	6330
1821	50.4372	6219
1824	50.5247	6263
1827	50.6122	6452
1830	50.6997	6155
1833	50.7873	6064
1836	50.8748	6198
1839	50.9624	6166
1842	51.05	5973
1845	51.1375	6154
1848	51.2251	6075
1851	51.3127	5925
1854	51.4002	5893
1857	51.4878	5911
1860	51.5754	6014
1863	51.6629	5860
1866	51.7504	6062
1869	51.8379	5983
1872	51.9254	6045
1875	52.0128	5840
1878	52.1003	5796
1881	52.1876	6016
1884	52.275	5799
1887	52.3623	5943
1890	52.4496	6004
1893	52.5369	5747
1896	52.6241	5785
1899	52.7112	5858
1902	52.7983	5935
1905	52.8853	5645
1908	52.9723	6128
1911	53.0593	6168
1914	53.1461	6043
1917	53.2329	5849
1920	53.3197	5860
1923	53.4064	6036
1926	53.493	5969
1929	53.5796	6026
1932	53.6662	5954
1935	53.7527	5757
1938	53.8392	5736
1941	53.9258	5789
1944	54.0123	5812
1947	54.0989	5811
1950	54.1855	5837
1953	54.2721	6012
1956	54.3587	5877
1959	54.4454	5819
1962	54.5322	5926
1965	54.619	5952
1968	54.7059	5922
1971	54.7929	5845
1974	54.88	6114
1977	54.9672	5858
1980	55.0545	5760
1983	55.1419	5815
1986	55.2294	6072
1989	55.3171	5980
1992	55.4049	5988
1995	55.4929	5940
1998	55.5811	6016
2001	55.6694	5699
2004	55.7579	5870
2007	55.8466	5964
2010	55.9355	5850
2013	56.0246	5901
2016	56.1139	5858
2019	56.2034	6007
2022	56.2932	5821
2025	56.3831	5820
2028	56.4732	5779
2031	56.5634	5776
2034	56.6537	5973
2037	56.7441	5908
2040	56.8345	5837
2043	56.9248	5923
2046	57.0151	5861
2049	57.1054	6053
2052	57.1955	5718
2055	57.2855	5995
2058	57.3753	5903
2061	57.4649	5772
2064	57.5542	5843
2067	57.6433	5851
2070	57.732	5844
2073	57.8205	5788
2076	57.9088	5873
2079	57.9968	5917
2082	58.0846	5908
2085	58.1723	5736
2088	58.2598	5914
2091	58.3471	6022
2094	58.4344	6017
2097	58.5216	5973
2100	58.6088	6269
2103	58.6959	5924
2106	58.783	6035
2109	58.8702	5992
2112	58.9574	6269
2115	59.0446	6136
2118	59.132	6212
2121	59.2195	6264
2124	59.307	6094
2127	59.3947	6080
2130	59.4824	6220
2133	59.5702	6075
2136	59.6581	5946
2139	59.746	5888
2142	59.8341	6210
2145	59.9222	6288
2148	60.0103	6142
2151	60.0986	6150
2154	60.1868	6107
2157	60.2752	6172
2160	60.3636	6008
2163	60.452	6106
2166	60.5405	6007
2169	60.629	5885
2172	60.7176	5959
2175	60.8061	5935
2178	60.8946	5973
2181	60.983	5944
2184	61.0714	6018
2187	61.1597	5847
2190	61.2479	5720
2193	61.336	6151
2196	61.4239	5991
2199	61.5117	5785
2202	61.5993	5976
2205	61.6867	5857
2208	61.774	6029
2211	61.8609	5754
2214	61.9477	5861
2217	62.0342	6054
2220	62.1206	5880
2223	62.2067	5865
2226	62.2927	6012
2229	62.3785	5902
2232	62.4642	5933
2235	62.5498	5779
2238	62.6353	5841
2241	62.7206	5829
2244	62.8059	5942
2247	62.8911	5960
2250	62.9763	5989
2253	63.0614	6057
2256	63.1465	5610
2259	63.2316	6008
2262	63.3167	5890
2265	63.4018	5875
2268	63.487	5795
2271	63.5722	5879
2274	63.6575	5888
2277	63.7429	5904
2280	63.8284	5875
2283	63.914	5871
2286	63.9997	5997
2289	64.0856	5955
2292	64.1716	5915
2295	64.2578	5904
2298	64.3442	5824
2301	64.4307	5911
2304	64.5176	5930
2307	64.6046	6130
2310	64.6919	6023
2313	64.7794	5876
2316	64.8671	5964
2319	64.955	5801
2322	65.0431	5625
2325	65.1313	5791
2328	65.2198	5828
2331	65.3085	5916
2334	65.3973	5774
2337	65.4862	5812
2340	65.5754	5697
2343	65.6646	5641
2346	65.754	5787
2349	65.8435	5804
2352	65.9332	5629
2355	66.0229	5652
2358	66.1128	5924
2361	66.2028	5714
2364	66.2928	5796
2367	66.3829	5783
2370	66.4731	5724
2373	66.5634	5761
2376	66.6537	5812
2379	66.7441	5744
2382	66.8345	5981
2385	66.9249	5701
2388	67.0154	5826
2391	67.1059	5778
2394	67.1964	5769
2397	67.2869	5890
2400	67.3774	5745
2403	67.4679	5786
2406	67.5584	5915
2409	67.6488	5978
2412	67.7392	5822
2415	67.8296	5880
2418	67.9199	5910
2421	68.0102	5819
2424	68.1003	5856
2427	68.1905	5732
2430	68.2805	5836
2433	68.3704	5847
2436	68.4603	5712
2439	68.55	5747
2442	68.6396	5915
2445	68.7292	5779
2448	68.8185	5836
2451	68.9078	5793
2454	68.9969	5715
2457	69.0858	5688
2460	69.1746	5650
2463	69.2632	5588
2466	69.3517	5687
2469	69.44	5624
2472	69.528	5631
2475	69.6159	5728
2478	69.7036	5571
2481	69.791	5698
2484	69.8783	5541
2487	69.9653	5589
2490	70.0523	5806
2493	70.1391	5592
2496	70.2258	5702
2499	70.3124	5697
2502	70.399	5677
2505	70.4857	5630
2508	70.5723	5737
2511	70.6591	5842
2514	70.7459	5614
2517	70.8329	5602
2520	70.9201	5686
2523	71.0074	5722
2526	71.095	5765
2529	71.1828	5642
2532	71.2709	5695
2535	71.3591	5588
2538	71.4476	5821
2541	71.5362	5676
2544	71.6249	5901
2547	71.7138	5748
2550	71.8028	5860
2553	71.8919	5707
2556	71.9811	5786
2559	72.0704	5564
2562	72.1597	5713
2565	72.249	5801
2568	72.3384	5806
2571	72.4277	5726
2574	72.517	5645
2577	72.6064	5696
2580	72.6957	5760
2583	72.7849	5771
2586	72.8742	5638
2589	72.9634	5720
2592	73.0526	5847
2595	73.1417	5743
2598	73.2308	5775
2601	73.3199	5653
2604	73.4089	5945
2607	73.4979	5648
2610	73.5868	5666
2613	73.6756	5662
2616	73.7644	5664
2619	73.8531	5820
2622	73.9417	5739
2625	74.0303	5714
2628	74.1187	5840
2631	74.2071	5564
2634	74.2954	5665
2637	74.3837	5801
2640	74.4718	5609
2643	74.5598	5541
2646	74.6477	5712
2649	74.7355	5646
2652	74.8232	5849
2655	74.9108	5793
2658	74.9982	5565
2661	75.0856	5642
2664	75.1729	5779
2667	75.2601	5655
2670	75.3473	5619
2673	75.4344	5635
2676	75.5215	5732
2679	75.6086	5681
2682	75.6957	5675
2685	75.7827	5499
2688	75.8698	5740
2691	75.957	5551
2694	76.0442	5662
2697	76.1314	5651
2700	76.2188	5607
2703	76.3062	5576
2706	76.3937	5816
2709	76.4814	5688
2712	76.5691	5724
2715	76.657	5472
2718	76.7451	5650
2721	76.8333	5472
2724	76.9217	5514
2727	77.0104	5710
2730	77.0992	5739
2733	77.1882	5755
2736	77.2775	5611
2739	77.367	5727
2742	77.4568	5590
2745	77.5468	5561
2748	77.6369	5679
2751	77.7272	5602
2754	77.8176	5696
2757	77.9081	5572
2760	77.9986	5721
2763	78.0891	5559
2766	78.1796	5669
2769	78.27	5578
2772	78.3603	5584
2775	78.4505	5701
2778	78.5405	5455
2781	78.6303	5660
2784	78.7198	5408
2787	78.8092	5579
2790	78.8983	5523
2793	78.9872	5519
2796	79.076	5662
2799	79.1645	5533
2802	79.2529	5369
2805	79.3411	5631
2808	79.4292	5495
2811	79.5171	5539
2814	79.6049	5381
2817	79.6925	5582
2820	79.78	5552
2823	79.8674	5649
2826	79.9547	5451
2829	80.0419	5724
2832	80.1291	5620
2835	80.2161	5647
2838	80.3031	5634
2841	80.39	5910
2844	80.4769	5850
2847	80.5637	5827
2850	80.6505	5907
2853	80.7372	6036
2856	80.824	5894
2859	80.9107	6150
2862	80.9974	6270
2865	81.0842	6235
2868	81.171	6155
2871	81.2577	6374
2874	81.3445	6274
2877	81.4314	6442
2880	81.5182	6334
2883	81.6051	6284
2886	81.6919	6126
2889	81.7788	6186
2892	81.8658	5951
2895	81.9527	6277
2898	82.0397	6034
2901	82.1267	5819
2904	82.2138	5902
2907	82.3009	5901
2910	82.388	5901
2913	82.4752	5836
2916	82.5624	5727
2919	82.6496	5635
2922	82.7369	5608
2925	82.8242	5602
2928	82.9116	5543
2931	82.999	5710
2934	83.0864	5346
2937	83.1739	5611
2940	83.2615	5440
2943	83.3491	5417
2946	83.4368	5591
2949	83.5245	5404
2952	83.6123	5619
2955	83.7001	5519
2958	83.788	5542
2961	83.8759	5420
2964	83.9639	5427
2967	84.052	5548
2970	84.1401	5547
2973	84.2283	5632
2976	84.3166	5334
2979	84.4049	5554
2982	84.4934	5635
2985	84.5818	5515
2988	84.6704	5530
2991	84.759	5671
2994	84.8477	5560
2997	84.9365	5585
3000	85.0253	5594
3003	85.1142	5581
3006	85.2031	5663
3009	85.292	5460
3012	85.3809	5573
3015	85.4699	5635
3018	85.5588	5617
3021	85.6478	5399
3024	85.7368	5593
3027	85.8257	5720
3030	85.9146	5545
3033	86.0035	5670
3036	86.0923	5551
3039	86.1811	5369
3042	86.2698	5518
3045	86.3584	5444
3048	86.447	5576
3051	86.5355	5520
3054	86.6239	5369
3057	86.7122	5453
3060	86.8004	5449
3063	86.8884	5512
3066	86.9764	5481
3069	87.0642	5516
3072	87.1519	5625
3075	87.2394	5457
3078	87.3268	5344
3081	87.4141	5467
3084	87.5014	5392
3087	87.5885	5454
3090	87.6756	5473
3093	87.7626	5421
3096	87.8496	5649
3099	87.9366	5441
3102	88.0236	5283
3105	88.1106	5456
3108	88.1977	5574
3111	88.2848	5437
3114	88.372	5513
3117	88.4592	5489
3120	88.5466	5391
3123	88.634	5270
3126	88.7216	5499
3129	88.8094	5517
3132	88.8973	5168
3135	88.9853	5190
3138	89.0736	5484
3141	89.1621	5312
3144	89.2508	5282
3147	89.3397	5570
3150	89.4289	5392
3153	89.5184	5363
3156	89.6081	5446
3159	89.6981	5373
3162	89.7883	5444
3165	89.8787	5424
3168	89.9691	5453
3171	90.0597	5399
3174	90.1502	5386
3177	90.2407	5341
3180	90.3312	5410
3183	90.4215	5157
3186	90.5116	5508
3189	90.6015	5397
3192	90.6912	5574
3195	90.7806	5323
3198	90.8696	5453
3201	90.9584	5281
3204	91.0469	5282
3207	91.1352	5506
3210	91.2235	5338
3213	91.3116	5423
3216	91.3998	5469
3219	91.4879	5407
3222	91.5761	5386
3225	91.6645	5480
3228	91.753	5294
3231	91.8417	5465
3234	91.9307	5541
3237	92.02	5605
3240	92.1097	5264
3243	92.1996	5241
3246	92.2897	5418
3249	92.3801	5292
3252	92.4707	5283
3255	92.5614	5510
3258	92.6523	5388
3261	92.7433	5216
3264	92.8344	5412
3267	92.9255	5289
3270	93.0166	5496
3273	93.1078	5519
3276	93.1989	5410
3279	93.2899	5308
3282	93.3809	5350
3285	93.4717	5523
3288	93.5623	5420
3291	93.6528	5207
3294	93.7431	5388
3297	93.8331	5462
3300	93.9229	5370
3303	94.0124	5319
3306	94.1015	5355
3309	94.1903	5285
3312	94.2787	5428
3315	94.3667	5547
3318	94.4542	5336
3321	94.5413	5414
3324	94.6279	5509
3327	94.7139	5424
3330	94.7994	5394
3333	94.8843	5471
3336	94.9685	5343
3339	95.0522	5371
3342	95.1351	5480
3345	95.2174	5331
3348	95.2989	5245
3351	95.3797	5497
3354	95.4596	5233
3357	95.5388	5352
3360	95.6171	5402
3363	95.6946	5348
3366	95.7713	5303
3369	95.8475	5374
3372	95.9232	5320
3375	95.9985	5285
3378	96.0735	5297
3381	96.1483	5470
3384	96.2231	5398
3387	96.298	5251
3390	96.373	5298
3393	96.4483	5145
3396	96.524	5283
3399	96.6002	5391
3402	96.677	5411
3405	96.7545	5293
3408	96.8328	5400
3411	96.9121	5464
3414	96.9924	5451
3417	97.0738	5319
3420	97.1565	5437
3423	97.2406	5403
3426	97.3262	5194
3429	97.4134	5239
3432	97.5023	5534
3435	97.593	5329
3438	97.6856	5422
3441	97.7802	5413
3444	97.877	5404
3447	97.9761	5454
3450	98.0775	5408
3453	98.1811	5209
3456	98.2866	5324
3459	98.3936	5418
3462	98.5016	5585
3465	98.6103	5203
3468	98.7193	5437
3471	98.8283	5213
3474	98.9368	5133
3477	99.0444	5134
3480	99.1508	5201
3483	99.2555	5267
3486	99.3583	5215
3489	99.4592	5277
3492	99.5583	5167
3495	99.6557	5218
3498	99.7514	5242
3501	99.8457	5344
3504	99.9385	5160
3507	100.03	5390
3510	100.12	5225
3513	100.209	5126
3516	100.297	5311
3519	100.384	5433
3522	100.47	5194
3525	100.556	5135
3528	100.64	5185
3531	100.724	5324
3534	100.808	5295
3537	100.891	5175
3540	100.974	5318
3543	101.056	5134
3546	101.139	5230
3549	101.221	5262
3552	101.304	5237
3555	101.386	5221
3558	101.469	5320
3561	101.552	5435
3564	101.636	5119
3567	101.72	5225
3570	101.805	5206
3573	101.89	5285
3576	101.976	5124
3579	102.062	5414
3582	102.149	5228
3585	102.236	5160
3588	102.323	5103
3591	102.411	5173
3594	102.499	5364
3597	102.587	5139
3600	102.676	5174
3603	102.764	5205
3606	102.853	5229
3609	102.942	5174
3612	103.027	5317
3615	103.111	5287
3618	103.196	5107
3621	103.28	5166
3624	103.364	5045
3627	103.449	5289
3630	103.533	5168
3633	103.618	5209
3636	103.702	5222
3639	103.786	5125
3642	103.871	5088
3645	103.955	5162
3648	104.039	5182
3651	104.124	5113
3654	104.208	5186
3657	104.293	5141
3660	104.377	5221
3663	104.461	5133
3666	104.546	5205
3669	104.63	5164
3672	104.714	5119
3675	104.799	5143
3678	104.883	5244
3681	104.967	5109
3684	105.052	5127
3687	105.136	5168
3690	105.221	5013
3693	105.305	5197
3696	105.389	5109
3699	105.474	5136
3702	105.558	5292
3705	105.642	5116
3708	105.727	5140
3711	105.811	5095
3714	105.896	5104
3717	105.98	5213
3720	106.064	5139
3723	106.149	5274
3726	106.233	5111
3729	106.317	5258
3732	106.402	5097
3735	106.486	5203
3738	106.57	5095
3741	106.655	5248
3744	106.739	5241
3747	106.824	5111
3750	106.908	5037
3753	106.992	5107
3756	107.077	5112
3759	107.161	5108
3762	107.245	5089
3765	107.33	5122
3768	107.414	5043
3771	107.499	5079
3774	107.583	5048
3777	107.667	5047
3780	107.752	5023
3783	107.836	5065
3786	107.92	5067
3789	108.005	5130
3792	108.089	5053
3795	108.173	5110
3798	108.258	4953
3801	108.342	5047
3804	108.427	5224
3807	108.511	5123
3810	108.595	5192
3813	108.68	5229
3816	108.764	5099
3819	108.848	5042
3822	108.933	5084
3825	109.017	4956
3828	109.102	4927
3831	109.186	5037
3834	109.27	5127
3837	109.355	4937
3840	109.439	4941
3843	109.523	4994
3846	109.608	4729
3849	109.692	5026
3852	109.776	5063
3855	109.861	4973
3858	109.945	4977
3861	110.03	4790
3864	110.114	4913
3867	110.198	5007
3870	110.283	4973
3873	110.367	4903
3876	110.451	4868
3879	110.536	4898
3882	110.62	4989
3885	110.705	4991
3888	110.789	4801
3891	110.873	5084
3894	110.958	4915
3897	111.042	4957
3900	111.126	5053
3903	111.211	4999
3906	111.295	4948
3909	111.38	4923
3912	111.464	4946
3915	111.548	5136
3918	111.633	5032
3921	111.717	5069
3924	111.801	5030
3927	111.886	5101
3930	111.97	4983
3933	112.054	5106
3936	112.139	5134
3939	112.223	5079
3942	112.308	5128
3945	112.392	5165
3948	112.476	5170
3951	112.561	5005
3954	112.645	5108
3957	112.729	5052
3960	112.814	5273
3963	112.898	5037
3966	112.983	5065
3969	113.067	5057
3972	113.151	5019
3975	113.236	5175
3978	113.32	5333
3981	113.404	5077
3984	113.489	5314
3987	113.573	5293
3990	113.657	5357
3993	113.742	5423
3996	113.826	5180
3999	113.911	5600
4002	113.995	5486
4005	114.079	5637
4008	114.164	5891
4011	114.248	6083
4014	114.332	6332
4017	114.417	6558
4020	114.501	6901
4023	114.586	7541
4026	114.67	8315
4029	114.754	9081
4032	114.839	9802
4035	114.923	9784
4038	115.007	8860
4041	115.092	5697
4044	115.176	2041
4047	115.26	304
4050	115.345	129
4053	115.429	82
4056	115.514	64
4059	115.598	54
4062	115.682	46
4065	115.767	53
4068	115.851	38
4071	115.935	49
4074	116.02	36
4077	116.104	40
4080	116.189	45
4083	116.273	31
4086	116.357	32
4089	116.442	29
4092	116.526	22
4095	116.61	34