File: data/XRD/Plot/226_0001_4x2F_v10T40_T300v2.txt
#Index	X	Acquisition
0	-2.81233	6
3	-2.72587	23
6	-2.6394	28
9	-2.55294	36
12	-2.46648	36
15	-2.38002	42
18	-2.29356	35
21	-2.2071	38
24	-2.12064	27
27	-2.03418	38
30	-1.94772	48
33	-1.86126	45
36	-1.7748	36
39	-1.68834	31
42	-1.60188	27
45	-1.51542	32
48	-1.42896	35
51	-1.3425	33
54	-1.25604	29
57	-1.16958	36
60	-1.08311	32
63	-0.996654	31
66	-0.910193	39
69	-0.823733	25
72	-0.737272	39
75	-0.650812	51
78	-0.564351	36
81	-0.47789	35
84	-0.39143	46
87	-0.304969	44
90	-0.218509	37
93	-0.132048	40
96	-0.0455875	31
99	0.0408731	33
102	0.127334	34
105	0.213794	37
108	0.300255	22
111	0.386717	46
114	0.473178	35
117	0.55964	29
120	0.646103	39
123	0.732566	45
126	0.819029	47
129	0.905494	37
132	0.991959	43
135	1.07843	41
138	1.16489	39
141	1.25136	50
144	1.33783	41
147	1.4243	49
150	1.51077	37
153	1.59725	36
156	1.68372	54
159	1.7702	38
162	1.85667	35
165	1.94315	49
168	2.02963	51
171	2.11612	48
174	2.2026	31
177	2.28909	39
180	2.37558	62
183	2.46207	62
186	2.54856	62
189	2.63506	44
192	2.72156	63
195	2.80806	44
198	2.89456	62
201	2.98107	61
204	3.06757	51
207	3.15409	52
210	3.2406	60
213	3.32712	45
216	3.41364	44
219	3.50016	55
222	3.58669	49
225	3.67322	44
228	3.75975	60
231	3.84628	48
234	3.93282	56
237	4.01937	48
240	4.10591	65
243	4.19246	48
246	4.27902	52
249	4.36558	47
252	4.45214	58
255	4.5387	54
258	4.62528	47
261	4.71185	53
264	4.79843	56
267	4.88501	56
270	4.9716	38
273	5.05819	52
276	5.14479	46
279	5.23139	49
282	5.31799	46
285	5.4046	61
288	5.49122	62
291	5.57784	58
294	5.66447	45
297	5.7511	49
300	5.83773	46
303	5.92437	60
306	6.01102	59
309	6.09767	51
312	6.18433	60
315	6.27099	71
318	6.35766	66
321	6.44434	64
324	6.53102	78
327	6.6177	64
330	6.70439	73
333	6.79109	87
336	6.8778	65
339	6.96451	65
342	7.05122	71
345	7.13795	75
348	7.22468	87
351	7.31141	105
354	7.39815	162
357	7.4849	198
360	7.57166	290
363	7.65842	412
366	7.74519	1069
369	7.83197	2323
372	7.91875	3579
375	8.00555	4658
378	8.09234	5468
381	8.17915	5855
384	8.26596	6173
387	8.35278	6137
390	8.43961	6261
393	8.52645	6152
396	8.61329	6145
399	8.70014	6136
402	8.787	5991
405	8.87387	6187
408	8.96074	5962
411	9.04762	6060
414	9.13452	5927
417	9.22141	5934
420	9.30832	5838
423	9.39524	5822
426	9.48216	5819
429	9.5691	5800
432	9.65604	5779
435	9.74299	5809
438	9.82995	5745
441	9.91692	5783
444	10.0039	5707
447	10.0909	5644
450	10.1779	5669
453	10.2649	5780
456	10.3519	5725
459	10.4389	5766
462	10.5259	5880
465	10.613	5709
468	10.7	5666
471	10.7871	5545
474	10.8742	5712
477	10.9613	5656
480	11.0483	5792
483	11.1354	5595
486	11.2226	5880
489	11.3097	5742
492	11.3968	5671
495	11.4839	5704
498	11.5711	5709
501	11.6583	5913
504	11.7454	5891
507	11.8326	6000
510	11.9198	5721
513	12.007	5832
516	12.0942	5915
519	12.1815	5881
522	12.2687	5875
525	12.3559	5911
528	12.4432	5850
531	12.5305	5803
534	12.6178	6043
537	12.705	6006
540	12.7923	5877
543	12.8797	5781
546	12.967	5927
549	13.0543	5846
552	13.1417	5909
555	13.229	5907
558	13.3164	5968
561	13.4038	5996
564	13.4912	5892
567	13.5786	5982
570	13.666	5922
573	13.7535	6073
576	13.8409	5959
579	13.9284	6211
582	14.0159	5890
585	14.1033	5861
588	14.1908	6053
591	14.2784	6054
594	14.3659	5945
597	14.4534	6010
600	14.541	6150
603	14.6285	5933
606	14.7161	5887
609	14.8037	6096
612	14.8913	6079
615	14.9789	5951
618	15.0665	6009
621	15.1542	6073
624	15.2418	5969
627	15.3295	6040
630	15.4172	6035
633	15.5049	6058
636	15.5926	5884
639	15.6803	5990
642	15.7681	5983
645	15.8558	5911
648	15.9436	6088
651	16.0314	6053
654	16.1192	6063
657	16.207	5964
660	16.2948	5900
663	16.3827	6101
666	16.4705	5999
669	16.5584	6038
672	16.6463	6095
675	16.7342	6001
678	16.8221	5988
681	16.91	5891
684	16.998	6122
687	17.0859	6047
690	17.1739	6030
693	17.2619	6083
696	17.3499	6131
699	17.4379	6042
702	17.526	6056
705	17.614	5967
708	17.7021	6009
711	17.7902	5928
714	17.8783	6026
717	17.9664	5994
720	18.0545	6121
723	18.1427	6105
726	18.2308	6157
729	18.319	6227
732	18.4072	6290
735	18.4954	6114
738	18.5837	6184
741	18.6719	6114
744	18.7602	6086
747	18.8485	6045
750	18.9368	6159
753	19.0251	6099
756	19.1134	6091
759	19.2018	6261
762	19.2901	6128
765	19.3785	6125
768	19.4669	5956
771	19.5554	6017
774	19.6438	5970
777	19.7322	6019
780	19.8207	6247
783	19.9092	6107
786	19.9977	5961
789	20.0862	6072
792	20.1748	6087
795	20.2634	6228
798	20.3519	6042
801	20.4405	5993
804	20.5292	6095
807	20.6178	6088
810	20.7064	6069
813	20.7951	6011
816	20.8838	6110
819	20.9725	6157
822	21.0612	6156
825	21.1499	5936
828	21.2387	6097
831	21.3275	6145
834	21.4162	6131
837	21.505	6275
840	21.5938	6195
843	21.6826	6036
846	21.7714	6133
849	21.8602	6348
852	21.9491	6241
855	22.0379	6200
858	22.1268	6204
861	22.2156	6209
864	22.3045	6123
867	22.3933	6278
870	22.4822	6299
873	22.5711	6278
876	22.66	6156
879	22.7488	6123
882	22.8377	6159
885	22.9266	6092
888	23.0155	6320
891	23.1044	6337
894	23.1933	6192
897	23.2821	6249
900	23.371	6106
903	23.4599	6164
906	23.5488	6136
909	23.6377	6239
912	23.7265	6216
915	23.8154	6232
918	23.9042	6248
921	23.9931	6215
924	24.0819	6213
927	24.1708	6192
930	24.2596	6097
933	24.3484	6235
936	24.4373	6196
939	24.5261	6170
942	24.6149	6199
945	24.7036	6130
948	24.7924	6275
951	24.8812	6140
954	24.9699	6340
957	25.0586	6187
960	25.1474	6124
963	25.2361	6191
966	25.3247	6327
969	25.4134	6393
972	25.5021	6216
975	25.5907	6114
978	25.6793	6417
981	25.7679	6196
984	25.8565	6220
987	25.9451	6418
990	26.0336	6182
993	26.1221	6378
996	26.2106	6286
999	26.2991	6157
1002	26.3875	6254
1005	26.476	6280
1008	26.5644	6489
1011	26.6527	6302
1014	26.7411	6040
1017	26.8294	6228
1020	26.9177	6222
1023	27.006	6352
1026	27.0942	6344
1029	27.1824	6156
1032	27.2706	6232
1035	27.3588	6301
1038	27.4469	6476
1041	27.535	6422
1044	27.623	6250
1047	27.7111	6419
1050	27.7991	6505
1053	27.887	6373
1056	27.9749	6350
1059	28.0628	6475
1062	28.1507	6477
1065	28.2385	6208
1068	28.3263	6399
1071	28.414	6420
1074	28.5017	6444
1077	28.5894	6297
1080	28.677	6430
1083	28.7646	6351
1086	28.8521	6328
1089	28.9396	6278
1092	29.0271	6333
1095	29.1145	6398
1098	29.2019	6311
1101	29.2892	6466
1104	29.3765	6539
1107	29.4638	6314
1110	29.551	6445
1113	29.6382	6398
1116	29.7253	6213
1119	29.8124	6336
1122	29.8995	6266
1125	29.9866	6327
1128	30.0736	6460
1131	30.1606	6278
1134	30.2476	6339
1137	30.3345	6216
1140	30.4215	6260
1143	30.5084	6250
1146	30.5953	6235
1149	30.6823	6271
1152	30.7692	6338
1155	30.856	6347
1158	30.9429	6381
1161	31.0298	6481
1164	31.1167	6233
1167	31.2036	6272
1170	31.2904	6189
1173	31.3773	6315
1176	31.4642	6317
1179	31.5511	6457
1182	31.638	6295
1185	31.7249	6593
1188	31.8118	6329
1191	31.8988	6272
1194	31.9857	6258
1197	32.0727	6228
1200	32.1597	6319
1203	32.2467	6200
1206	32.3337	6405
1209	32.4208	6388
1212	32.5079	6242
1215	32.595	6447
1218	32.6822	6224
1221	32.7694	6318
1224	32.8566	6333
1227	32.9439	6300
1230	33.0312	6420
1233	33.1185	6259
1236	33.2059	6335
1239	33.2933	6267
1242	33.3808	6206
1245	33.4684	6344
1248	33.5559	6148
1251	33.6436	6233
1254	33.7313	6424
1257	33.819	6198
1260	33.9068	6293
1263	33.9947	6084
1266	34.0826	6206
1269	34.1705	6161
1272	34.2585	6317
1275	34.3466	6315
1278	34.4346	6412
1281	34.5227	6229
1284	34.6109	6395
1287	34.699	6376
1290	34.7872	6470
1293	34.8754	6340
1296	34.9637	6253
1299	35.0519	6311
1302	35.1402	6363
1305	35.2284	6388
1308	35.3167	6462
1311	35.405	6310
1314	35.4932	6445
1317	35.5815	6524
1320	35.6697	6468
1323	35.758	6292
1326	35.8462	6326
1329	35.9344	6616
1332	36.0226	6450
1335	36.1108	6285
1338	36.1989	6361
1341	36.287	6375
1344	36.3752	6455
1347	36.4633	6421
1350	36.5514	6423
1353	36.6395	6351
1356	36.7275	6252
1359	36.8156	6557
1362	36.9037	6528
1365	36.9917	6401
1368	37.0798	6303
1371	37.1678	6554
1374	37.2559	6550
1377	37.344	6467
1380	37.432	6527
1383	37.5201	6432
1386	37.6082	6545
1389	37.6962	6317
1392	37.7843	6343
1395	37.8724	6557
1398	37.9605	6162
1401	38.0486	6363
1404	38.1368	6415
1407	38.2249	6332
1410	38.3131	6387
1413	38.4013	6483
1416	38.4895	6479
1419	38.5777	6341
1422	38.6659	6522
1425	38.7542	6299
1428	38.8425	6472
1431	38.9308	6564
1434	39.0192	6343
1437	39.1076	6460
1440	39.196	6365
1443	39.2844	6378
1446	39.3729	6510
1449	39.4614	6530
1452	39.55	6498
1455	39.6386	6418
1458	39.7272	6358
1461	39.8159	6426
1464	39.9046	6329
1467	39.9933	6476
1470	40.0821	6557
1473	40.1709	6278
1476	40.2598	6398
1479	40.3487	6471
1482	40.4376	6380
1485	40.5265	6297
1488	40.6154	6380
1491	40.7043	6407
1494	40.7933	6546
1497	40.8822	6469
1500	40.9712	6494
1503	41.0601	6409
1506	41.149	6616
1509	41.2379	6609
1512	41.3268	6526
1515	41.4157	6757
1518	41.5045	6385
1521	41.5934	6475
1524	41.6821	6479
1527	41.7709	6493
1530	41.8596	6349
1533	41.9482	6458
1536	42.0369	6334
1539	42.1254	6349
1542	42.2139	6354
1545	42.3024	6272
1548	42.3907	6516
1551	42.479	6351
1554	42.5673	6378
1557	42.6554	6433
1560	42.7435	6486
1563	42.8315	6372
1566	42.9194	6703
1569	43.0072	6429
1572	43.0949	6766
1575	43.1826	6935
1578	43.2701	6806
1581	43.3575	7410
1584	43.4448	7629
1587	43.532	7644
1590	43.6191	8029
1593	43.706	8238
1596	43.7929	8272
1599	43.8797	8194
1602	43.9664	8179
1605	44.0531	8336
1608	44.1397	8297
1611	44.2263	8060
1614	44.3128	8029
1617	44.3993	7869
1620	44.4859	7573
1623	44.5724	7427
1626	44.6589	7215
1629	44.7455	6714
1632	44.832	6708
1635	44.9187	6627
1638	45.0053	6368
1641	45.0921	6438
1644	45.1789	6349
1647	45.2658	6422
1650	45.3528	6451
1653	45.4399	6432
1656	45.5271	6483
1659	45.6145	6537
1662	45.702	6572
1665	45.7896	6440
1668	45.8774	6614
1671	45.9654	6646
1674	46.0535	6474
1677	46.1418	6502
1680	46.2304	6511
1683	46.3191	6383
1686	46.4081	6473
1689	46.4973	6412
1692	46.5867	6616
1695	46.6764	6525
1698	46.7663	6483
1701	46.8566	6493
1704	46.9471	6378
1707	47.0378	6442
1710	47.1288	6504
1713	47.2201	6559
1716	47.3114	6521
1719	47.4029	6623
1722	47.4945	6685
1725	47.5862	6579
1728	47.6779	6484
1731	47.7696	6509
1734	47.8612	6604
1737	47.9528	6405
1740	48.0443	6577
1743	48.1356	6664
1746	48.2267	6629
1749	48.3176	6501
1752	48.4083	6754
1755	48.4987	6584
1758	48.5888	6424
1761	48.6785	6555
1764	48.768	6708
1767	48.8572	6406
1770	48.9461	6536
1773	49.0348	6498
1776	49.1232	6669
1779	49.2115	6485
1782	49.2995	6660
1785	49.3874	6486
1788	49.4752	6389
1791	49.5629	6418
1794	49.6504	6624
1797	49.7379	6665
1800	49.8253	6629
1803	49.9127	6628
1806	50.0001	6723
1809	50.0874	6526
1812	50.1748	6506
1815	50.2622	6441
1818	50.3497	6792
1821	50.4372	6513
1824	50.5247	6490
1827	50.6122	6545
1830	50.6997	6480
1833	50.7873	6557
1836	50.8748	6558
1839	50.9624	6701
1842	51.05	6578
1845	51.1375	6617
1848	51.2251	6753
1851	51.3127	6422
1854	51.4002	6532
1857	51.4878	6528
1860	51.5754	6558
1863	51.6629	6467
1866	51.7504	6625
1869	51.8379	6484
1872	51.9254	6544
1875	52.0128	6479
1878	52.1003	6604
1881	52.1876	6654
1884	52.275	6347
1887	52.3623	6537
1890	52.4496	6543
1893	52.5369	6434
1896	52.6241	6451
1899	52.7112	6521
1902	52.7983	6672
1905	52.8853	6319
1908	52.9723	6688
1911	53.0593	6788
1914	53.1461	6559
1917	53.2329	6329
1920	53.3197	6426
1923	53.4064	6448
1926	53.493	6411
1929	53.5796	6479
1932	53.6662	6647
1935	53.7527	6463
1938	53.8392	6516
1941	53.9258	6433
1944	54.0123	6754
1947	54.0989	6389
1950	54.1855	6565
1953	54.2721	6610
1956	54.3587	6481
1959	54.4454	6562
1962	54.5322	6566
1965	54.619	6580
1968	54.7059	6464
1971	54.7929	6653
1974	54.88	6682
1977	54.9672	6598
1980	55.0545	6509
1983	55.1419	6690
1986	55.2294	6863
1989	55.3171	6475
1992	55.4049	6688
1995	55.4929	6525
1998	55.5811	6516
2001	55.6694	6487
2004	55.7579	6588
2007	55.8466	6448
2010	55.9355	6566
2013	56.0246	6366
2016	56.1139	6498
2019	56.2034	6593
2022	56.2932	6524
2025	56.3831	6495
2028	56.4732	6356
2031	56.5634	6349
2034	56.6537	6477
2037	56.7441	6547
2040	56.8345	6696
2043	56.9248	6354
2046	57.0151	6641
2049	57.1054	6694
2052	57.1955	6579
2055	57.2855	6565
2058	57.3753	6475
2061	57.4649	6463
2064	57.5542	6342
2067	57.6433	6466
2070	57.732	6604
2073	57.8205	6503
2076	57.9088	6475
2079	57.9968	6438
2082	58.0846	6500
2085	58.1723	6443
2088	58.2598	6617
2091	58.3471	6596
2094	58.4344	6499
2097	58.5216	6589
2100	58.6088	6740
2103	58.6959	6483
2106	58.783	6531
2109	58.8702	6424
2112	58.9574	6662
2115	59.0446	6501
2118	59.132	6391
2121	59.2195	6461
2124	59.307	6452
2127	59.3947	6599
2130	59.4824	6711
2133	59.5702	6562
2136	59.6581	6476
2139	59.746	6530
2142	59.8341	6599
2145	59.9222	6557
2148	60.0103	6508
2151	60.0986	6546
2154	60.1868	6481
2157	60.2752	6772
2160	60.3636	6618
2163	60.452	6540
2166	60.5405	6553
2169	60.629	6536
2172	60.7176	6574
2175	60.8061	6494
2178	60.8946	6606
2181	60.983	6600
2184	61.0714	6492
2187	61.1597	6372
2190	61.2479	6389
2193	61.336	6570
2196	61.4239	6559
2199	61.5117	6601
2202	61.5993	6479
2205	61.6867	6394
2208	61.774	6678
2211	61.8609	6361
2214	61.9477	6597
2217	62.0342	6427
2220	62.1206	6461
2223	62.2067	6511
2226	62.2927	6575
2229	62.3785	6573
2232	62.4642	6327
2235	62.5498	6429
2238	62.6353	6397
2241	62.7206	6323
2244	62.8059	6626
2247	62.8911	6531
2250	62.9763	6627
2253	63.0614	6545
2256	63.1465	6322
2259	63.2316	6604
2262	63.3167	6484
2265	63.4018	6687
2268	63.487	6658
2271	63.5722	6481
2274	63.6575	6429
2277	63.7429	6490
2280	63.8284	6547
2283	63.914	6388
2286	63.9997	6573
2289	64.0856	6511
2292	64.1716	6379
2295	64.2578	6502
2298	64.3442	6482
2301	64.4307	6581
2304	64.5176	6649
2307	64.6046	6395
2310	64.6919	6510
2313	64.7794	6685
2316	64.8671	6470
2319	64.955	6548
2322	65.0431	6393
2325	65.1313	6337
2328	65.2198	6465
2331	65.3085	6410
2334	65.3973	6213
2337	65.4862	6261
2340	65.5754	6537
2343	65.6646	6333
2346	65.754	6392
2349	65.8435	6464
2352	65.9332	6481
2355	66.0229	6353
2358	66.1128	6540
2361	66.2028	6631
2364	66.2928	6420
2367	66.3829	6365
2370	66.4731	6405
2373	66.5634	6413
2376	66.6537	6362
2379	66.7441	6476
2382	66.8345	6474
2385	66.9249	6346
2388	67.0154	6461
2391	67.1059	6619
2394	67.1964	6362
2397	67.2869	6600
2400	67.3774	6522
2403	67.4679	6403
2406	67.5584	6478
2409	67.6488	6400
2412	67.7392	6464
2415	67.8296	6500
2418	67.9199	6262
2421	68.0102	6517
2424	68.1003	6394
2427	68.1905	6401
2430	68.2805	6457
2433	68.3704	6398
2436	68.4603	6495
2439	68.55	6362
2442	68.6396	6383
2445	68.7292	6507
2448	68.8185	6339
2451	68.9078	6415
2454	68.9969	6426
2457	69.0858	6479
2460	69.1746	6381
2463	69.2632	6275
2466	69.3517	6415
2469	69.44	6400
2472	69.528	6335
2475	69.6159	6375
2478	69.7036	6226
2481	69.791	6393
2484	69.8783	6361
2487	69.9653	6255
2490	70.0523	6378
2493	70.1391	6277
2496	70.2258	6276
2499	70.3124	6228
2502	70.399	6360
2505	70.4857	6416
2508	70.5723	6345
2511	70.6591	6390
2514	70.7459	6389
2517	70.8329	6365
2520	70.9201	6223
2523	71.0074	6372
2526	71.095	6538
2529	71.1828	6413
2532	71.2709	6298
2535	71.3591	6284
2538	71.4476	6463
2541	71.5362	6376
2544	71.6249	6262
2547	71.7138	6294
2550	71.8028	6342
2553	71.8919	6299
2556	71.9811	6379
2559	72.0704	6327
2562	72.1597	6340
2565	72.249	6234
2568	72.3384	6248
2571	72.4277	6456
2574	72.517	6286
2577	72.6064	6313
2580	72.6957	6302
2583	72.7849	6402
2586	72.8742	6466
2589	72.9634	6217
2592	73.0526	6497
2595	73.1417	6312
2598	73.2308	6157
2601	73.3199	6309
2604	73.4089	6357
2607	73.4979	6502
2610	73.5868	6482
2613	73.6756	6419
2616	73.7644	6395
2619	73.8531	6377
2622	73.9417	6149
2625	74.0303	6209
2628	74.1187	6285
2631	74.2071	6331
2634	74.2954	6262
2637	74.3837	6196
2640	74.4718	6325
2643	74.5598	6134
2646	74.6477	6385
2649	74.7355	6261
2652	74.8232	6214
2655	74.9108	6349
2658	74.9982	6244
2661	75.0856	6165
2664	75.1729	6318
2667	75.2601	6324
2670	75.3473	6140
2673	75.4344	6300
2676	75.5215	6246
2679	75.6086	6359
2682	75.6957	6150
2685	75.7827	6227
2688	75.8698	6348
2691	75.957	6122
2694	76.0442	6245
2697	76.1314	6298
2700	76.2188	6099
2703	76.3062	6196
2706	76.3937	6127
2709	76.4814	6394
2712	76.5691	6144
2715	76.657	6253
2718	76.7451	6246
2721	76.8333	6198
2724	76.9217	6144
2727	77.0104	6242
2730	77.0992	6155
2733	77.1882	6339
2736	77.2775	6359
2739	77.367	6259
2742	77.4568	6377
2745	77.5468	6205
2748	77.6369	6268
2751	77.7272	6234
2754	77.8176	6303
2757	77.9081	6174
2760	77.9986	6132
2763	78.0891	6209
2766	78.1796	6166
2769	78.27	6102
2772	78.3603	6165
2775	78.4505	6220
2778	78.5405	6114
2781	78.6303	6389
2784	78.7198	6173
2787	78.8092	6220
2790	78.8983	6108
2793	78.9872	6081
2796	79.076	6290
2799	79.1645	6007
2802	79.2529	6063
2805	79.3411	6128
2808	79.4292	6067
2811	79.5171	6034
2814	79.6049	5952
2817	79.6925	6083
2820	79.78	6196
2823	79.8674	6163
2826	79.9547	6139
2829	80.0419	6262
2832	80.1291	6219
2835	80.2161	6352
2838	80.3031	6225
2841	80.39	6432
2844	80.4769	6365
2847	80.5637	6538
2850	80.6505	6505
2853	80.7372	6514
2856	80.824	6557
2859	80.9107	6745
2862	80.9974	6766
2865	81.0842	6811
2868	81.171	6924
2871	81.2577	6797
2874	81.3445	6661
2877	81.4314	6646
2880	81.5182	6513
2883	81.6051	6619
2886	81.6919	6595
2889	81.7788	6473
2892	81.8658	6513
2895	81.9527	6514
2898	82.0397	6391
2901	82.1267	6178
2904	82.2138	6217
2907	82.3009	6192
2910	82.388	6253
2913	82.4752	6269
2916	82.5624	6063
2919	82.6496	6173
2922	82.7369	6157
2925	82.8242	6168
2928	82.9116	6036
2931	82.999	6065
2934	83.0864	5929
2937	83.1739	6091
2940	83.2615	5965
2943	83.3491	6006
2946	83.4368	5940
2949	83.5245	6007
2952	83.6123	6047
2955	83.7001	5908
2958	83.788	6112
2961	83.8759	5934
2964	83.9639	6076
2967	84.052	5952
2970	84.1401	6043
2973	84.2283	6045
2976	84.3166	5901
2979	84.4049	6061
2982	84.4934	6177
2985	84.5818	6058
2988	84.6704	6148
2991	84.759	6140
2994	84.8477	6083
2997	84.9365	6083
3000	85.0253	6107
3003	85.1142	6098
3006	85.2031	6264
3009	85.292	5949
3012	85.3809	6009
3015	85.4699	6107
3018	85.5588	6266
3021	85.6478	6149
3024	85.7368	6104
3027	85.8257	6030
3030	85.9146	5932
3033	86.0035	6255
3036	86.0923	6119
3039	86.1811	5844
3042	86.2698	6236
3045	86.3584	6000
3048	86.447	6048
3051	86.5355	5983
3054	86.6239	6153
3057	86.7122	5788
3060	86.8004	5974
3063	86.8884	5858
3066	86.9764	5900
3069	87.0642	6091
3072	87.1519	6218
3075	87.2394	5903
3078	87.3268	6143
3081	87.4141	5952
3084	87.5014	6061
3087	87.5885	5859
3090	87.6756	6116
3093	87.7626	6113
3096	87.8496	6088
3099	87.9366	5975
3102	88.0236	5914
3105	88.1106	5865
3108	88.1977	6179
3111	88.2848	5870
3114	88.372	6012
3117	88.4592	5837
3120	88.5466	6001
3123	88.634	5778
3126	88.7216	6143
3129	88.8094	6009
3132	88.8973	5891
3135	88.9853	5691
3138	89.0736	5920
3141	89.1621	5947
3144	89.2508	6009
3147	89.3397	6027
3150	89.4289	5847
3153	89.5184	5982
3156	89.6081	5947
3159	89.6981	5843
3162	89.7883	5798
3165	89.8787	5911
3168	89.9691	5940
3171	90.0597	6080
3174	90.1502	5797
3177	90.2407	6029
3180	90.3312	6023
3183	90.4215	5949
3186	90.5116	6090
3189	90.6015	5733
3192	90.6912	5886
3195	90.7806	5910
3198	90.8696	5977
3201	90.9584	6041
3204	91.0469	5970
3207	91.1352	5943
3210	91.2235	5862
3213	91.3116	5887
3216	91.3998	5959
3219	91.4879	6075
3222	91.5761	5816
3225	91.6645	6051
3228	91.753	5930
3231	91.8417	5915
3234	91.9307	6106
3237	92.02	6033
3240	92.1097	5862
3243	92.1996	5994
3246	92.2897	5929
3249	92.3801	5834
3252	92.4707	6086
3255	92.5614	5874
3258	92.6523	5907
3261	92.7433	5704
3264	92.8344	5881
3267	92.9255	5870
3270	93.0166	5828
3273	93.1078	5878
3276	93.1989	6072
3279	93.2899	5813
3282	93.3809	5824
3285	93.4717	5811
3288	93.5623	5805
3291	93.6528	5771
3294	93.7431	5912
3297	93.8331	5953
3300	93.9229	5798
3303	94.0124	5759
3306	94.1015	5990
3309	94.1903	5944
3312	94.2787	5778
3315	94.3667	5812
3318	94.4542	5744
3321	94.5413	5827
3324	94.6279	5877
3327	94.7139	5693
3330	94.7994	5937
3333	94.8843	5859
3336	94.9685	5757
3339	95.0522	5832
3342	95.1351	5802
3345	95.2174	5761
3348	95.2989	5777
3351	95.3797	5724
3354	95.4596	5752
3357	95.5388	5930
3360	95.6171	5741
3363	95.6946	5774
3366	95.7713	5647
3369	95.8475	5820
3372	95.9232	5815
3375	95.9985	5812
3378	96.0735	5981
3381	96.1483	5837
3384	96.2231	5929
3387	96.298	5879
3390	96.373	5978
3393	96.4483	5830
3396	96.524	5851
3399	96.6002	5796
3402	96.677	5683
3405	96.7545	5983
3408	96.8328	5869
3411	96.9121	6007
3414	96.9924	5946
3417	97.0738	5756
3420	97.1565	6058
3423	97.2406	5992
3426	97.3262	6113
3429	97.4134	5753
3432	97.5023	6106
3435	97.593	5854
3438	97.6856	5967
3441	97.7802	6004
3444	97.877	5936
3447	97.9761	6146
3450	98.0775	5864
3453	98.1811	5785
3456	98.2866	6013
3459	98.3936	5930
3462	98.5016	5966
3465	98.6103	5697
3468	98.7193	5797
3471	98.8283	5727
3474	98.9368	5759
3477	99.0444	5732
3480	99.1508	5792
3483	99.2555	5687
3486	99.3583	5622
3489	99.4592	5799
3492	99.5583	5713
3495	99.6557	5742
3498	99.7514	5702
3501	99.8457	5890
3504	99.9385	5692
3507	100.03	5819
3510	100.12	5794
3513	100.209	5650
3516	100.297	5667
3519	100.384	5650
3522	100.47	5737
3525	100.556	5696
3528	100.64	5744
3531	100.724	5812
3534	100.808	5741
3537	100.891	5689
3540	100.974	5518
3543	101.056	5700
3546	101.139	5722
3549	101.221	5807
3552	101.304	5720
3555	101.386	5611
3558	101.469	5774
3561	101.552	5667
3564	101.636	5638
3567	101.72	5741
3570	101.805	5626
3573	101.89	5817
3576	101.976	5526
3579	102.062	5685
3582	102.149	5646
3585	102.236	5722
3588	102.323	5656
3591	102.411	5642
3594	102.499	5686
3597	102.587	5558
3600	102.676	5693
3603	102.764	5786
3606	102.853	5757
3609	102.942	5750
3612	103.027	5732
3615	103.111	5658
3618	103.196	5573
3621	103.28	5792
3624	103.364	5574
3627	103.449	5684
3630	103.533	5583
3633	103.618	5626
3636	103.702	5718
3639	103.786	5665
3642	103.871	5658
3645	103.955	5683
3648	104.039	5723
3651	104.124	5727
3654	104.208	5817
3657	104.293	5498
3660	104.377	5582
3663	104.461	5531
3666	104.546	5768
3669	104.63	5690
3672	104.714	5678
3675	104.799	5513
3678	104.883	5601
3681	104.967	5570
3684	105.052	5643
3687	105.136	5819
3690	105.221	5770
3693	105.305	5612
3696	105.389	5492
3699	105.474	5658
3702	105.558	5689
3705	105.642	5723
3708	105.727	5784
3711	105.811	5515
3714	105.896	5677
3717	105.98	5685
3720	106.064	5668
3723	106.149	5793
3726	106.233	5581
3729	106.317	5682
3732	106.402	5599
3735	106.486	5754
3738	106.57	5781
3741	106.655	5503
3744	106.739	5747
3747	106.824	5559
3750	106.908	5645
3753	106.992	5487
3756	107.077	5598
3759	107.161	5624
3762	107.245	5519
3765	107.33	5551
3768	107.414	5635
3771	107.499	5605
3774	107.583	5450
3777	107.667	5616
3780	107.752	5697
3783	107.836	5779
3786	107.92	5671
3789	108.005	5671
3792	108.089	5768
3795	108.173	5577
3798	108.258	5541
3801	108.342	5654
3804	108.427	5607
3807	108.511	5545
3810	108.595	5620
3813	108.68	5603
3816	108.764	5564
3819	108.848	5441
3822	108.933	5584
3825	109.017	5594
3828	109.102	5442
3831	109.186	5401
3834	109.27	5607
3837	109.355	5311
3840	109.439	5555
3843	109.523	5637
3846	109.608	5377
3849	109.692	5460
3852	109.776	5452
3855	109.861	5552
3858	109.945	5349
3861	110.03	5309
3864	110.114	5464
3867	110.198	5449
3870	110.283	5364
3873	110.367	5372
3876	110.451	5414
3879	110.536	5318
3882	110.62	5377
3885	110.705	5375
3888	110.789	5454
3891	110.873	5376
3894	110.958	5320
3897	111.042	5303
3900	111.126	5436
3903	111.211	5303
3906	111.295	5422
3909	111.38	5364
3912	111.464	5469
3915	111.548	5623
3918	111.633	5441
3921	111.717	5650
3924	111.801	5638
3927	111.886	5534
3930	111.97	5623
3933	112.054	5569
3936	112.139	5356
3939	112.223	5590
3942	112.308	5444
3945	112.392	5693
3948	112.476	5607
3951	112.561	5519
3954	112.645	5536
3957	112.729	5672
3960	112.814	5713
3963	112.898	5511
3966	112.983	5521
3969	113.067	5587
3972	113.151	5634
3975	113.236	5742
3978	113.32	5833
3981	113.404	5659
3984	113.489	5779
3987	113.573	5572
3990	113.657	5759
3993	113.742	5805
3996	113.826	5947
3999	113.911	6025
4002	113.995	6173
4005	114.079	6242
4008	114.164	6463
4011	114.248	6589
4014	114.332	6843
4017	114.417	7360
4020	114.501	7669
4023	114.586	8258
4026	114.67	9064
4029	114.754	9866
4032	114.839	10694
4035	114.923	10635
4038	115.007	9270
4041	115.092	6113
4044	115.176	2034
4047	115.26	324
4050	115.345	163
4053	115.429	103
4056	115.514	78
4059	115.598	78
4062	115.682	66
4065	115.767	59
4068	115.851	50
4071	115.935	56
4074	116.02	36
4077	116.104	51
4080	116.189	65
4083	116.273	56
4086	116.357	53
4089	116.442	37
4092	116.526	42
4095	116.61	41